Folder: supplementary_data/002_Mazur_ACSApplMaterInterfaces_2024/isotherms/extrapolated

Note: README.md
# Supplementary data

Here you can find supplementary data to my published research. Mostly input files and raw data.

File: isotherm_TIP4P_MOF-303_343_N15_extrapolated.csv
,pressure_Pa,fugacity_Pa,p/p0,uptake
0,1.0,0.964495,2.23106e-05,2.94131
1,226.23,218.198,0.00504732,3.17659
2,451.461,435.431,0.0100723,3.39726
3,676.691,652.665,0.0150974,3.60818
4,901.921,869.898,0.0201224,3.80996
5,1127.15,1087.13,0.0251474,4.00321
6,1352.38,1304.36,0.0301724,4.18843
7,1577.61,1521.6,0.0351974,4.36614
8,1802.84,1738.83,0.0402224,4.53678
9,2028.07,1956.06,0.0452474,4.7011
10,2253.3,2173.3,0.0502724,4.86462
11,2478.53,2390.53,0.0552975,5.08279
12,2703.76,2607.77,0.0603225,5.66136
13,2928.99,2825,0.0653475,6.53481
14,3154.22,3042.23,0.0703725,6.95515
15,3379.45,3259.47,0.0753975,7.18167
16,3604.68,3476.7,0.0804225,7.37519
17,3829.91,3693.93,0.0854475,7.56231
18,4055.14,3911.17,0.0904726,7.74884
19,4280.37,4128.4,0.0954976,7.94198
20,4505.61,4345.63,0.100523,8.15832
21,4730.84,4562.87,0.105548,8.43162
22,4956.07,4780.1,0.110573,8.81175
23,5181.3,4997.33,0.115598,9.3257
24,5406.53,5214.57,0.120623,9.91656
25,5631.76,5431.8,0.125648,10.4846
26,5856.99,5649.03,0.130673,10.9856
27,6082.22,5866.27,0.135698,11.4391
28,6307.45,6083.5,0.140723,11.9049
29,6532.68,6300.73,0.145748,12.4692
30,6757.91,6517.97,0.150773,13.1901
31,6983.14,6735.2,0.155798,14.0111
32,7208.37,6952.43,0.160823,14.8633
33,7433.6,7169.67,0.165848,15.8941
34,7658.83,7386.9,0.170873,17.3866
35,7884.06,7604.13,0.175898,19.0074
36,8109.29,7821.37,0.180923,20.111
37,8334.52,8038.6,0.185948,20.835
38,8559.75,8255.83,0.190973,21.467
39,8784.98,8473.07,0.195998,22.1686
40,9010.21,8690.3,0.201023,23.0269
41,9235.44,8907.53,0.206048,24.0161
42,9460.67,9124.77,0.211073,24.9351
43,9685.9,9342,0.216098,25.6066
44,9911.13,9559.23,0.221123,26.0451
45,10136.4,9776.47,0.226148,26.3428
46,10361.6,9993.7,0.231173,26.5713
47,10586.8,10210.9,0.236198,26.7727
48,10812.1,10428.2,0.241223,26.9711
49,11037.3,10645.4,0.246248,27.1802
50,11262.5,10862.6,0.251273,27.4062
51,11487.7,11079.9,0.256298,27.6483
52,11713,11297.1,0.261323,27.8987
53,11938.2,11514.3,0.266348,28.1459
54,12163.4,11731.6,0.271373,28.3781
55,12388.7,11948.8,0.276398,28.5874
56,12613.9,12166,0.281423,28.7706
57,12839.1,12383.3,0.286448,28.9286
58,13064.4,12600.5,0.291473,29.0646
59,13289.6,12817.7,0.296498,29.1827
60,13514.8,13035,0.301523,29.2868
61,13740,13252.2,0.306548,29.3805
62,13965.3,13469.4,0.311573,29.4667
63,14190.5,13686.7,0.316598,29.5477
64,14415.7,13903.9,0.321623,29.6254
65,14641,14121.1,0.326648,29.7012
66,14866.2,14338.4,0.331673,29.7764
67,15091.4,14555.6,0.336698,29.8516
68,15316.7,14772.8,0.341723,29.9275
69,15541.9,14990.1,0.346748,30.0045
70,15767.1,15207.3,0.351773,30.0825
71,15992.3,15424.5,0.356798,30.1616
72,16217.6,15641.8,0.361823,30.2416
73,16442.8,15859,0.366848,30.3222
74,16668,16076.2,0.371873,30.403
75,16893.3,16293.5,0.376898,30.4835
76,17118.5,16510.7,0.381923,30.5635
77,17343.7,16727.9,0.386948,30.6423
78,17569,16945.2,0.391973,30.7199
79,17794.2,17162.4,0.396998,30.7957
80,18019.4,17379.6,0.402023,30.8697
81,18244.7,17596.9,0.407048,30.9417
82,18469.9,17814.1,0.412073,31.0116
83,18695.1,18031.3,0.417098,31.0792
84,18920.3,18248.6,0.422123,31.1448
85,19145.6,18465.8,0.427148,31.2082
86,19370.8,18683,0.432173,31.2695
87,19596,18900.3,0.437198,31.3289
88,19821.3,19117.5,0.442223,31.3864
89,20046.5,19334.7,0.447249,31.4421
90,20271.7,19552,0.452274,31.4962
91,20497,19769.2,0.457299,31.5486
92,20722.2,19986.4,0.462324,31.5996
93,20947.4,20203.7,0.467349,31.6493
94,21172.6,20420.9,0.472374,31.6977
95,21397.9,20638.1,0.477399,31.745
96,21623.1,20855.4,0.482424,31.7912
97,21848.3,21072.6,0.487449,31.8365
98,22073.6,21289.8,0.492474,31.8809
99,22298.8,21507.1,0.497499,31.9246
100,22524,21724.3,0.502524,31.9675
101,22749.3,21941.5,0.507549,32.0098
102,22974.5,22158.8,0.512574,32.0515
103,23199.7,22376,0.517599,32.0926
104,23424.9,22593.2,0.522624,32.1334
105,23650.2,22810.5,0.527649,32.1736
106,23875.4,23027.7,0.532674,32.2135
107,24100.6,23244.9,0.537699,32.2531
108,24325.9,23462.2,0.542724,32.2922
109,24551.1,23679.4,0.547749,32.3311
110,24776.3,23896.6,0.552774,32.3696
111,25001.6,24113.9,0.557799,32.4078
112,25226.8,24331.1,0.562824,32.4457
113,25452,24548.3,0.567849,32.4833
114,25677.2,24765.6,0.572874,32.5206
115,25902.5,24982.8,0.577899,32.5575
116,26127.7,25200,0.582924,32.594
117,26352.9,25417.3,0.587949,32.6302
118,26578.2,25634.5,0.592974,32.666
119,26803.4,25851.7,0.597999,32.7014
120,27028.6,26069,0.603024,32.7364
121,27253.9,26286.2,0.608049,32.771
122,27479.1,26503.4,0.613074,32.8051
123,27704.3,26720.7,0.618099,32.8387
124,27929.6,26937.9,0.623124,32.8719
125,28154.8,27155.1,0.628149,32.9046
126,28380,27372.4,0.633174,32.9368
127,28605.2,27589.6,0.638199,32.9685
128,28830.5,27806.8,0.643224,32.9997
129,29055.7,28024.1,0.648249,33.0304
130,29280.9,28241.3,0.653274,33.0605
131,29506.2,28458.5,0.658299,33.0902
132,29731.4,28675.8,0.663324,33.1194
133,29956.6,28893,0.668349,33.1481
134,30181.9,29110.2,0.673374,33.1763
135,30407.1,29327.5,0.678399,33.204
136,30632.3,29544.7,0.683424,33.2313
137,30857.5,29761.9,0.688449,33.2581
138,31082.8,29979.2,0.693474,33.2844
139,31308,30196.4,0.698499,33.3103
140,31533.2,30413.6,0.703524,33.3357
141,31758.5,30630.9,0.708549,33.3607
142,31983.7,30848.1,0.713574,33.3852
143,32208.9,31065.3,0.718599,33.4094
144,32434.2,31282.6,0.723624,33.4332
145,32659.4,31499.8,0.728649,33.4565
146,32884.6,31717,0.733674,33.4795
147,33109.8,31934.3,0.738699,33.5021
148,33335.1,32151.5,0.743724,33.5244
149,33560.3,32368.7,0.748749,33.5462
150,33785.5,32586,0.753774,33.5678
151,34010.8,32803.2,0.758799,33.589
152,34236,33020.4,0.763824,33.6098
153,34461.2,33237.7,0.768849,33.6304
154,34686.5,33454.9,0.773874,33.6506
155,34911.7,33672.1,0.778899,33.6705
156,35136.9,33889.4,0.783924,33.6902
157,35362.1,34106.6,0.788949,33.7095
158,35587.4,34323.8,0.793974,33.7285
159,35812.6,34541.1,0.798999,33.7473
160,36037.8,34758.3,0.804024,33.7658
161,36263.1,34975.5,0.809049,33.784
162,36488.3,35192.8,0.814074,33.802
163,36713.5,35410,0.8191,33.8197
164,36938.8,35627.2,0.824125,33.8372
165,37164,35844.5,0.82915,33.8544
166,37389.2,36061.7,0.834175,33.8713
167,37614.5,36278.9,0.8392,33.8881
168,37839.7,36496.2,0.844225,33.9046
169,38064.9,36713.4,0.84925,33.9209
170,38290.1,36930.6,0.854275,33.9369
171,38515.4,37147.9,0.8593,33.9528
172,38740.6,37365.1,0.864325,33.9684
173,38965.8,37582.3,0.86935,33.9839
174,39191.1,37799.6,0.874375,33.9991
175,39416.3,38016.8,0.8794,34.0141
176,39641.5,38234,0.884425,34.029
177,39866.8,38451.3,0.88945,34.0436
178,40092,38668.5,0.894475,34.0581
179,40317.2,38885.7,0.8995,34.0724
180,40542.4,39103,0.904525,34.0865
181,40767.7,39320.2,0.90955,34.1004
182,40992.9,39537.4,0.914575,34.1141
183,41218.1,39754.7,0.9196,34.1277
184,41443.4,39971.9,0.924625,34.1411
185,41668.6,40189.1,0.92965,34.1544
186,41893.8,40406.4,0.934675,34.1674
187,42119.1,40623.6,0.9397,34.1804
188,42344.3,40840.8,0.944725,34.1932
189,42569.5,41058.1,0.94975,34.2058
190,42794.7,41275.3,0.954775,34.2182
191,43020,41492.5,0.9598,34.2306
192,43245.2,41709.8,0.964825,34.2428
193,43470.4,41927,0.96985,34.2548
194,43695.7,42144.2,0.974875,34.2667
195,43920.9,42361.5,0.9799,34.2785
196,44146.1,42578.7,0.984925,34.2901
197,44371.4,42795.9,0.98995,34.3016
198,44596.6,43013.2,0.994975,34.313
199,44821.8,43230.4,1.0,34.3242

File: isotherm_TIP4P_MOF-303_343_N37_extrapolated.csv
,pressure_Pa,fugacity_Pa,p/p0,uptake
0,1.0,0.964495,2.23106e-05,3.42001
1,226.23,218.198,0.00504732,3.64525
2,451.461,435.431,0.0100723,3.83515
3,676.691,652.665,0.0150974,4.01774
4,901.921,869.898,0.0201224,4.27721
5,1127.15,1087.13,0.0251474,4.88148
6,1352.38,1304.36,0.0301724,5.24737
7,1577.61,1521.6,0.0351974,5.46816
8,1802.84,1738.83,0.0402224,5.66994
9,2028.07,1956.06,0.0452474,5.86389
10,2253.3,2173.3,0.0502724,6.05192
11,2478.53,2390.53,0.0552975,6.24076
12,2703.76,2607.77,0.0603225,6.44339
13,2928.99,2825,0.0653475,6.67131
14,3154.22,3042.23,0.0703725,6.91832
15,3379.45,3259.47,0.0753975,7.16026
16,3604.68,3476.7,0.0804225,7.38002
17,3829.91,3693.93,0.0854475,7.58037
18,4055.14,3911.17,0.0904726,7.77473
19,4280.37,4128.4,0.0954976,7.9777
20,4505.61,4345.63,0.100523,8.20223
21,4730.84,4562.87,0.105548,8.45982
22,4956.07,4780.1,0.110573,8.76084
23,5181.3,4997.33,0.115598,9.11365
24,5406.53,5214.57,0.120623,9.52467
25,5631.76,5431.8,0.125648,10.0064
26,5856.99,5649.03,0.130673,10.5794
27,6082.22,5866.27,0.135698,11.2195
28,6307.45,6083.5,0.140723,11.8277
29,6532.68,6300.73,0.145748,12.3665
30,6757.91,6517.97,0.150773,12.939
31,6983.14,6735.2,0.155798,13.6635
32,7208.37,6952.43,0.160823,14.5751
33,7433.6,7169.67,0.165848,15.9576
34,7658.83,7386.9,0.170873,17.8517
35,7884.06,7604.13,0.175898,19.0405
36,8109.29,7821.37,0.180923,19.6535
37,8334.52,8038.6,0.185948,20.3651
38,8559.75,8255.83,0.190973,21.4803
39,8784.98,8473.07,0.195998,22.5273
40,9010.21,8690.3,0.201023,23.2229
41,9235.44,8907.53,0.206048,23.8869
42,9460.67,9124.77,0.211073,24.666
43,9685.9,9342,0.216098,25.3602
44,9911.13,9559.23,0.221123,25.8296
45,10136.4,9776.47,0.226148,26.1476
46,10361.6,9993.7,0.231173,26.4236
47,10586.8,10210.9,0.236198,26.7264
48,10812.1,10428.2,0.241223,27.08
49,11037.3,10645.4,0.246248,27.4607
50,11262.5,10862.6,0.251273,27.8154
51,11487.7,11079.9,0.256298,28.1036
52,11713,11297.1,0.261323,28.3184
53,11938.2,11514.3,0.266348,28.4751
54,12163.4,11731.6,0.271373,28.5931
55,12388.7,11948.8,0.276398,28.6876
56,12613.9,12166,0.281423,28.7686
57,12839.1,12383.3,0.286448,28.842
58,13064.4,12600.5,0.291473,28.9115
59,13289.6,12817.7,0.296498,28.9789
60,13514.8,13035,0.301523,29.0452
61,13740,13252.2,0.306548,29.1108
62,13965.3,13469.4,0.311573,29.1755
63,14190.5,13686.7,0.316598,29.2393
64,14415.7,13903.9,0.321623,29.3018
65,14641,14121.1,0.326648,29.3626
66,14866.2,14338.4,0.331673,29.4217
67,15091.4,14555.6,0.336698,29.4787
68,15316.7,14772.8,0.341723,29.5339
69,15541.9,14990.1,0.346748,29.5873
70,15767.1,15207.3,0.351773,29.6394
71,15992.3,15424.5,0.356798,29.6909
72,16217.6,15641.8,0.361823,29.7424
73,16442.8,15859,0.366848,29.795
74,16668,16076.2,0.371873,29.8501
75,16893.3,16293.5,0.376898,29.9092
76,17118.5,16510.7,0.381923,29.9742
77,17343.7,16727.9,0.386948,30.0474
78,17569,16945.2,0.391973,30.1307
79,17794.2,17162.4,0.396998,30.2264
80,18019.4,17379.6,0.402023,30.3357
81,18244.7,17596.9,0.407048,30.4588
82,18469.9,17814.1,0.412073,30.5941
83,18695.1,18031.3,0.417098,30.7382
84,18920.3,18248.6,0.422123,30.8862
85,19145.6,18465.8,0.427148,31.0323
86,19370.8,18683,0.432173,31.1711
87,19596,18900.3,0.437198,31.2986
88,19821.3,19117.5,0.442223,31.4124
89,20046.5,19334.7,0.447249,31.5119
90,20271.7,19552,0.452274,31.5976
91,20497,19769.2,0.457299,31.671
92,20722.2,19986.4,0.462324,31.7338
93,20947.4,20203.7,0.467349,31.7877
94,21172.6,20420.9,0.472374,31.8345
95,21397.9,20638.1,0.477399,31.8756
96,21623.1,20855.4,0.482424,31.9121
97,21848.3,21072.6,0.487449,31.9449
98,22073.6,21289.8,0.492474,31.975
99,22298.8,21507.1,0.497499,32.0028
100,22524,21724.3,0.502524,32.0289
101,22749.3,21941.5,0.507549,32.0537
102,22974.5,22158.8,0.512574,32.0774
103,23199.7,22376,0.517599,32.1003
104,23424.9,22593.2,0.522624,32.1227
105,23650.2,22810.5,0.527649,32.1446
106,23875.4,23027.7,0.532674,32.1663
107,24100.6,23244.9,0.537699,32.1879
108,24325.9,23462.2,0.542724,32.2095
109,24551.1,23679.4,0.547749,32.2314
110,24776.3,23896.6,0.552774,32.2535
111,25001.6,24113.9,0.557799,32.276
112,25226.8,24331.1,0.562824,32.2992
113,25452,24548.3,0.567849,32.3231
114,25677.2,24765.6,0.572874,32.3478
115,25902.5,24982.8,0.577899,32.3737
116,26127.7,25200,0.582924,32.4007
117,26352.9,25417.3,0.587949,32.4292
118,26578.2,25634.5,0.592974,32.4593
119,26803.4,25851.7,0.597999,32.4912
120,27028.6,26069,0.603024,32.5251
121,27253.9,26286.2,0.608049,32.5612
122,27479.1,26503.4,0.613074,32.5997
123,27704.3,26720.7,0.618099,32.6406
124,27929.6,26937.9,0.623124,32.6842
125,28154.8,27155.1,0.628149,32.7305
126,28380,27372.4,0.633174,32.7793
127,28605.2,27589.6,0.638199,32.8307
128,28830.5,27806.8,0.643224,32.8845
129,29055.7,28024.1,0.648249,32.9403
130,29280.9,28241.3,0.653274,32.9979
131,29506.2,28458.5,0.658299,33.0568
132,29731.4,28675.8,0.663324,33.1164
133,29956.6,28893,0.668349,33.1764
134,30181.9,29110.2,0.673374,33.2361
135,30407.1,29327.5,0.678399,33.295
136,30632.3,29544.7,0.683424,33.3526
137,30857.5,29761.9,0.688449,33.4085
138,31082.8,29979.2,0.693474,33.4623
139,31308,30196.4,0.698499,33.5138
140,31533.2,30413.6,0.703524,33.5626
141,31758.5,30630.9,0.708549,33.6088
142,31983.7,30848.1,0.713574,33.6521
143,32208.9,31065.3,0.718599,33.6928
144,32434.2,31282.6,0.723624,33.7307
145,32659.4,31499.8,0.728649,33.766
146,32884.6,31717,0.733674,33.7989
147,33109.8,31934.3,0.738699,33.8294
148,33335.1,32151.5,0.743724,33.8577
149,33560.3,32368.7,0.748749,33.8841
150,33785.5,32586,0.753774,33.9086
151,34010.8,32803.2,0.758799,33.9315
152,34236,33020.4,0.763824,33.9528
153,34461.2,33237.7,0.768849,33.9727
154,34686.5,33454.9,0.773874,33.9914
155,34911.7,33672.1,0.778899,34.0089
156,35136.9,33889.4,0.783924,34.0254
157,35362.1,34106.6,0.788949,34.0409
158,35587.4,34323.8,0.793974,34.0556
159,35812.6,34541.1,0.798999,34.0696
160,36037.8,34758.3,0.804024,34.0829
161,36263.1,34975.5,0.809049,34.0955
162,36488.3,35192.8,0.814074,34.1075
163,36713.5,35410,0.8191,34.1191
164,36938.8,35627.2,0.824125,34.1301
165,37164,35844.5,0.82915,34.1408
166,37389.2,36061.7,0.834175,34.151
167,37614.5,36278.9,0.8392,34.1609
168,37839.7,36496.2,0.844225,34.1704
169,38064.9,36713.4,0.84925,34.1796
170,38290.1,36930.6,0.854275,34.1886
171,38515.4,37147.9,0.8593,34.1972
172,38740.6,37365.1,0.864325,34.2056
173,38965.8,37582.3,0.86935,34.2138
174,39191.1,37799.6,0.874375,34.2218
175,39416.3,38016.8,0.8794,34.2295
176,39641.5,38234,0.884425,34.2371
177,39866.8,38451.3,0.88945,34.2445
178,40092,38668.5,0.894475,34.2517
179,40317.2,38885.7,0.8995,34.2588
180,40542.4,39103,0.904525,34.2657
181,40767.7,39320.2,0.90955,34.2725
182,40992.9,39537.4,0.914575,34.2791
183,41218.1,39754.7,0.9196,34.2856
184,41443.4,39971.9,0.924625,34.292
185,41668.6,40189.1,0.92965,34.2983
186,41893.8,40406.4,0.934675,34.3045
187,42119.1,40623.6,0.9397,34.3105
188,42344.3,40840.8,0.944725,34.3165
189,42569.5,41058.1,0.94975,34.3224
190,42794.7,41275.3,0.954775,34.3282
191,43020,41492.5,0.9598,34.3339
192,43245.2,41709.8,0.964825,34.3395
193,43470.4,41927,0.96985,34.3451
194,43695.7,42144.2,0.974875,34.3506
195,43920.9,42361.5,0.9799,34.356
196,44146.1,42578.7,0.984925,34.3613
197,44371.4,42795.9,0.98995,34.3666
198,44596.6,43013.2,0.994975,34.3719
199,44821.8,43230.4,1.0,34.377

File: isotherm_TIP4P_MOF-LA2_343_N9_extrapolated.csv
,pressure_Pa,fugacity_Pa,p/p0,uptake
0,1.0,0.964495,2.23106e-05,0.00220832
1,226.23,218.198,0.00504732,0.477561
2,451.461,435.431,0.0100723,0.912763
3,676.691,652.665,0.0150974,1.3127
4,901.921,869.898,0.0201224,1.68148
5,1127.15,1087.13,0.0251474,2.02262
6,1352.38,1304.36,0.0301724,2.3391
7,1577.61,1521.6,0.0351974,2.63352
8,1802.84,1738.83,0.0402224,2.90809
9,2028.07,1956.06,0.0452474,3.16477
10,2253.3,2173.3,0.0502724,3.40524
11,2478.53,2390.53,0.0552975,3.63099
12,2703.76,2607.77,0.0603225,3.84334
13,2928.99,2825,0.0653475,4.04344
14,3154.22,3042.23,0.0703725,4.23233
15,3379.45,3259.47,0.0753975,4.41091
16,3604.68,3476.7,0.0804225,4.58001
17,3829.91,3693.93,0.0854475,4.74038
18,4055.14,3911.17,0.0904726,4.89265
19,4280.37,4128.4,0.0954976,5.03744
20,4505.61,4345.63,0.100523,5.17529
21,4730.84,4562.87,0.105548,5.30667
22,4956.07,4780.1,0.110573,5.43204
23,5181.3,4997.33,0.115598,5.55179
24,5406.53,5214.57,0.120623,5.66631
25,5631.76,5431.8,0.125648,5.77591
26,5856.99,5649.03,0.130673,5.88092
27,6082.22,5866.27,0.135698,5.98161
28,6307.45,6083.5,0.140723,6.07825
29,6532.68,6300.73,0.145748,6.17108
30,6757.91,6517.97,0.150773,6.26031
31,6983.14,6735.2,0.155798,6.34616
32,7208.37,6952.43,0.160823,6.42881
33,7433.6,7169.67,0.165848,6.50843
34,7658.83,7386.9,0.170873,6.58519
35,7884.06,7604.13,0.175898,6.65925
36,8109.29,7821.37,0.180923,6.73074
37,8334.52,8038.6,0.185948,6.79979
38,8559.75,8255.83,0.190973,6.86653
39,8784.98,8473.07,0.195998,6.93106
40,9010.21,8690.3,0.201023,6.99351
41,9235.44,8907.53,0.206048,7.05396
42,9460.67,9124.77,0.211073,7.11251
43,9685.9,9342,0.216098,7.16926
44,9911.13,9559.23,0.221123,7.22427
45,10136.4,9776.47,0.226148,7.27764
46,10361.6,9993.7,0.231173,7.32943
47,10586.8,10210.9,0.236198,7.37971
48,10812.1,10428.2,0.241223,7.42855
49,11037.3,10645.4,0.246248,7.476
50,11262.5,10862.6,0.251273,7.52214
51,11487.7,11079.9,0.256298,7.56701
52,11713,11297.1,0.261323,7.61067
53,11938.2,11514.3,0.266348,7.65317
54,12163.4,11731.6,0.271373,7.69456
55,12388.7,11948.8,0.276398,7.73488
56,12613.9,12166,0.281423,7.77418
57,12839.1,12383.3,0.286448,7.81251
58,13064.4,12600.5,0.291473,7.84992
59,13289.6,12817.7,0.296498,7.88646
60,13514.8,13035,0.301523,7.92216
61,13740,13252.2,0.306548,7.95709
62,13965.3,13469.4,0.311573,7.9913
63,14190.5,13686.7,0.316598,8.02485
64,14415.7,13903.9,0.321623,8.05782
65,14641,14121.1,0.326648,8.09028
66,14866.2,14338.4,0.331673,8.12232
67,15091.4,14555.6,0.336698,8.15408
68,15316.7,14772.8,0.341723,8.18568
69,15541.9,14990.1,0.346748,8.21733
70,15767.1,15207.3,0.351773,8.24928
71,15992.3,15424.5,0.356798,8.28187
72,16217.6,15641.8,0.361823,46.5973
73,16442.8,15859,0.366848,47.8258
74,16668,16076.2,0.371873,48.9797
75,16893.3,16293.5,0.376898,50.0992
76,17118.5,16510.7,0.381923,51.1408
77,17343.7,16727.9,0.386948,52.0435
78,17569,16945.2,0.391973,52.7771
79,17794.2,17162.4,0.396998,53.3493
80,18019.4,17379.6,0.402023,53.7877
81,18244.7,17596.9,0.407048,54.1239
82,18469.9,17814.1,0.412073,54.3846
83,18695.1,18031.3,0.417098,54.5903
84,18920.3,18248.6,0.422123,54.7559
85,19145.6,18465.8,0.427148,54.892
86,19370.8,18683,0.432173,55.0064
87,19596,18900.3,0.437198,55.1046
88,19821.3,19117.5,0.442223,55.1905
89,20046.5,19334.7,0.447249,55.2673
90,20271.7,19552,0.452274,55.3372
91,20497,19769.2,0.457299,55.402
92,20722.2,19986.4,0.462324,55.4632
93,20947.4,20203.7,0.467349,55.5218
94,21172.6,20420.9,0.472374,55.5788
95,21397.9,20638.1,0.477399,55.635
96,21623.1,20855.4,0.482424,55.6911
97,21848.3,21072.6,0.487449,55.7477
98,22073.6,21289.8,0.492474,55.8055
99,22298.8,21507.1,0.497499,55.8649
100,22524,21724.3,0.502524,55.9264
101,22749.3,21941.5,0.507549,55.9905
102,22974.5,22158.8,0.512574,56.0575
103,23199.7,22376,0.517599,56.128
104,23424.9,22593.2,0.522624,56.2022
105,23650.2,22810.5,0.527649,56.2804
106,23875.4,23027.7,0.532674,56.363
107,24100.6,23244.9,0.537699,56.45
108,24325.9,23462.2,0.542724,56.5417
109,24551.1,23679.4,0.547749,56.6381
110,24776.3,23896.6,0.552774,56.7391
111,25001.6,24113.9,0.557799,56.8445
112,25226.8,24331.1,0.562824,56.9542
113,25452,24548.3,0.567849,57.0678
114,25677.2,24765.6,0.572874,57.1848
115,25902.5,24982.8,0.577899,57.3048
116,26127.7,25200,0.582924,57.4272
117,26352.9,25417.3,0.587949,57.5515
118,26578.2,25634.5,0.592974,57.677
119,26803.4,25851.7,0.597999,57.8032
120,27028.6,26069,0.603024,57.9295
121,27253.9,26286.2,0.608049,58.0554
122,27479.1,26503.4,0.613074,58.1805
123,27704.3,26720.7,0.618099,58.3044
124,27929.6,26937.9,0.623124,58.4268
125,28154.8,27155.1,0.628149,58.5474
126,28380,27372.4,0.633174,58.666
127,28605.2,27589.6,0.638199,58.7825
128,28830.5,27806.8,0.643224,58.8968
129,29055.7,28024.1,0.648249,59.0087
130,29280.9,28241.3,0.653274,59.1184
131,29506.2,28458.5,0.658299,59.2257
132,29731.4,28675.8,0.663324,59.3308
133,29956.6,28893,0.668349,59.4335
134,30181.9,29110.2,0.673374,59.534
135,30407.1,29327.5,0.678399,59.6324
136,30632.3,29544.7,0.683424,59.7286
137,30857.5,29761.9,0.688449,59.8227
138,31082.8,29979.2,0.693474,59.9149
139,31308,30196.4,0.698499,60.005
140,31533.2,30413.6,0.703524,60.0933
141,31758.5,30630.9,0.708549,60.1797
142,31983.7,30848.1,0.713574,60.2644
143,32208.9,31065.3,0.718599,60.3473
144,32434.2,31282.6,0.723624,60.4285
145,32659.4,31499.8,0.728649,60.5081
146,32884.6,31717,0.733674,60.5861
147,33109.8,31934.3,0.738699,60.6626
148,33335.1,32151.5,0.743724,60.7376
149,33560.3,32368.7,0.748749,60.8111
150,33785.5,32586,0.753774,60.8832
151,34010.8,32803.2,0.758799,60.954
152,34236,33020.4,0.763824,61.0234
153,34461.2,33237.7,0.768849,61.0915
154,34686.5,33454.9,0.773874,61.1584
155,34911.7,33672.1,0.778899,61.224
156,35136.9,33889.4,0.783924,61.2885
157,35362.1,34106.6,0.788949,61.3518
158,35587.4,34323.8,0.793974,61.414
159,35812.6,34541.1,0.798999,61.475
160,36037.8,34758.3,0.804024,61.5351
161,36263.1,34975.5,0.809049,61.594
162,36488.3,35192.8,0.814074,61.652
163,36713.5,35410,0.8191,61.7089
164,36938.8,35627.2,0.824125,61.765
165,37164,35844.5,0.82915,61.82
166,37389.2,36061.7,0.834175,61.8742
167,37614.5,36278.9,0.8392,61.9274
168,37839.7,36496.2,0.844225,61.9798
169,38064.9,36713.4,0.84925,62.0314
170,38290.1,36930.6,0.854275,62.0821
171,38515.4,37147.9,0.8593,62.132
172,38740.6,37365.1,0.864325,62.1811
173,38965.8,37582.3,0.86935,62.2294
174,39191.1,37799.6,0.874375,62.277
175,39416.3,38016.8,0.8794,62.3238
176,39641.5,38234,0.884425,62.3699
177,39866.8,38451.3,0.88945,62.4153
178,40092,38668.5,0.894475,62.46
179,40317.2,38885.7,0.8995,62.5041
180,40542.4,39103,0.904525,62.5475
181,40767.7,39320.2,0.90955,62.5902
182,40992.9,39537.4,0.914575,62.6323
183,41218.1,39754.7,0.9196,62.6738
184,41443.4,39971.9,0.924625,62.7146
185,41668.6,40189.1,0.92965,62.7549
186,41893.8,40406.4,0.934675,62.7946
187,42119.1,40623.6,0.9397,62.8337
188,42344.3,40840.8,0.944725,62.8723
189,42569.5,41058.1,0.94975,62.9103
190,42794.7,41275.3,0.954775,62.9478
191,43020,41492.5,0.9598,62.9847
192,43245.2,41709.8,0.964825,63.0212
193,43470.4,41927,0.96985,63.0571
194,43695.7,42144.2,0.974875,63.0925
195,43920.9,42361.5,0.9799,63.1274
196,44146.1,42578.7,0.984925,63.1619
197,44371.4,42795.9,0.98995,63.1959
198,44596.6,43013.2,0.994975,63.2294
199,44821.8,43230.4,1.0,63.2625