Folder: supplementary_data/002_Mazur_ACSApplMaterInterfaces_2024/isotherms/interpolated (part 3)

File: isotherm_TIP4P_NU-1000_298_N60_5k.csv
,pressure_Pa,fugacity_Pa,p/p0,uptake,metastable_gas,metastable_liq
0,1.0,0.979242,0.000219787,0.013414,,
1,23.8585,23.3633,0.00524381,0.311819,,
2,46.7171,45.7473,0.0102678,0.595281,,
3,69.5756,68.1314,0.0152919,0.864896,,
4,92.4342,90.5155,0.0203159,1.12165,,
5,115.293,112.9,0.0253399,1.36645,,
6,138.151,135.284,0.0303639,1.60011,,
7,161.01,157.668,0.0353879,1.82337,,
8,183.868,180.052,0.040412,2.0369,,
9,206.727,202.436,0.045436,2.24134,,
10,229.585,224.82,0.05046,2.43725,,
11,252.444,247.204,0.055484,2.62516,,
12,275.303,269.588,0.060508,2.80554,,
13,298.161,291.972,0.0655321,2.97883,,
14,321.02,314.356,0.0705561,3.14546,,
15,343.878,336.74,0.0755801,3.30579,,
16,366.737,359.124,0.0806041,3.46017,,
17,389.595,381.508,0.0856281,3.60893,,
18,412.454,403.892,0.0906522,3.75238,,
19,435.312,426.276,0.0956762,3.89079,,
20,458.171,448.66,0.1007,4.02442,,
21,481.03,471.044,0.105724,4.15351,,
22,503.888,493.428,0.110748,4.2783,,
23,526.747,515.812,0.115772,4.39899,,
24,549.605,538.197,0.120796,4.51579,,
25,572.464,560.581,0.12582,4.62887,,
26,595.322,582.965,0.130844,4.73842,,
27,618.181,605.349,0.135868,4.84459,,
28,641.039,627.733,0.140892,4.94754,,
29,663.898,650.117,0.145916,5.04742,,
30,686.756,672.501,0.15094,5.14436,,
31,709.615,694.885,0.155964,5.23848,,
32,732.474,717.269,0.160988,5.32992,,
33,755.332,739.653,0.166012,5.41877,,
34,778.191,762.037,0.171037,5.50516,,
35,801.049,784.421,0.176061,5.58918,,
36,823.908,806.805,0.181085,5.67093,,
37,846.766,829.189,0.186109,5.7505,,
38,869.625,851.573,0.191133,5.82797,,
39,892.483,873.957,0.196157,5.90344,,
40,915.342,896.341,0.201181,5.97697,,
41,938.201,918.725,0.206205,6.04864,,
42,961.059,941.109,0.211229,6.11852,,
43,983.918,963.494,0.216253,6.18667,,
44,1006.78,985.878,0.221277,6.25317,,
45,1029.63,1008.26,0.226301,6.31807,,
46,1052.49,1030.65,0.231325,6.38144,,
47,1075.35,1053.03,0.236349,6.44331,,
48,1098.21,1075.41,0.241373,6.50376,,
49,1121.07,1097.8,0.246397,6.56282,,
50,1143.93,1120.18,0.251421,6.62055,,
51,1166.79,1142.57,0.256445,6.67699,,
52,1189.64,1164.95,0.261469,6.73219,,
53,1212.5,1187.33,0.266493,6.78619,,
54,1235.36,1209.72,0.271517,6.83903,,
55,1258.22,1232.1,0.276541,6.89075,,
56,1281.08,1254.49,0.281565,6.94139,,
57,1303.94,1276.87,0.286589,6.99098,,
58,1326.8,1299.25,0.291613,7.03955,,
59,1349.65,1321.64,0.296637,7.08715,,
60,1372.51,1344.02,0.301661,7.13379,,
61,1395.37,1366.41,0.306685,7.17952,,
62,1418.23,1388.79,0.311709,7.22437,,
63,1441.09,1411.17,0.316733,7.26835,,
64,1463.95,1433.56,0.321757,7.3115,,
65,1486.81,1455.94,0.326781,7.35385,,
66,1509.66,1478.33,0.331805,7.39542,,
67,1532.52,1500.71,0.336829,7.43623,,
68,1555.38,1523.09,0.341853,7.47631,,
69,1578.24,1545.48,0.346877,7.51569,,
70,1601.1,1567.86,0.351901,7.55438,,
71,1623.96,1590.25,0.356925,7.5924,,
72,1646.82,1612.63,0.361949,7.62979,,
73,1669.67,1635.02,0.366973,7.66655,,
74,1692.53,1657.4,0.371997,7.7027,,
75,1715.39,1679.78,0.377021,7.73828,,
76,1738.25,1702.17,0.382045,7.77328,,
77,1761.11,1724.55,0.387069,7.80774,,
78,1783.97,1746.94,0.392093,7.84167,,
79,1806.83,1769.32,0.397117,7.87509,,
80,1829.68,1791.7,0.402141,7.90801,,
81,1852.54,1814.09,0.407166,7.94045,,
82,1875.4,1836.47,0.41219,7.97242,,
83,1898.26,1858.86,0.417214,8.00394,,
84,1921.12,1881.24,0.422238,8.03502,,
85,1943.98,1903.62,0.427262,8.06569,,
86,1966.84,1926.01,0.432286,8.09594,,
87,1989.69,1948.39,0.43731,8.1258,,
88,2012.55,1970.78,0.442334,8.15528,,
89,2035.41,1993.16,0.447358,8.18439,,
90,2058.27,2015.54,0.452382,8.21315,,
91,2081.13,2037.93,0.457406,8.24156,,
92,2103.99,2060.31,0.46243,8.26964,,
93,2126.85,2082.7,0.467454,8.2974,,
94,2149.7,2105.08,0.472478,8.32485,,
95,2172.56,2127.46,0.477502,8.35201,,
96,2195.42,2149.85,0.482526,8.37888,,354.497
97,2218.28,2172.23,0.48755,8.40547,,362.064
98,2241.14,2194.62,0.492574,8.4318,,366.532
99,2264,2217,0.497598,8.45787,,369.252
100,2286.85,2239.38,0.502622,8.4837,,371.288
101,2309.71,2261.77,0.507646,8.5093,,373.351
102,2332.57,2284.15,0.51267,8.53467,,376.183
103,2355.43,2306.54,0.517694,8.55983,,381.503
104,2378.29,2328.92,0.522718,8.58478,,396.346
105,2401.15,2351.3,0.527742,8.60953,,436.156
106,2424.01,2373.69,0.532766,8.6341,,475.788
107,2446.86,2396.07,0.53779,8.65849,,488.922
108,2469.72,2418.46,0.542814,8.68271,,491.906
109,2492.58,2440.84,0.547838,8.70678,,492.721
110,2515.44,2463.23,0.552862,8.73069,,493.085
111,2538.3,2485.61,0.557886,8.75445,,493.346
112,2561.16,2507.99,0.56291,8.77809,,493.583
113,2584.02,2530.38,0.567934,8.8016,,493.814
114,2606.87,2552.76,0.572958,8.82499,,494.043
115,2629.73,2575.15,0.577982,8.84828,,494.272
116,2652.59,2597.53,0.583006,8.87146,,494.502
117,2675.45,2619.91,0.58803,8.89455,,494.734
118,2698.31,2642.3,0.593054,8.91756,,494.967
119,2721.17,2664.68,0.598078,8.94049,,495.201
120,2744.03,2687.07,0.603102,8.96336,,495.437
121,2766.88,2709.45,0.608126,8.98617,,495.675
122,2789.74,2731.83,0.61315,9.00892,,495.916
123,2812.6,2754.22,0.618174,9.03164,,496.159
124,2835.46,2776.6,0.623198,9.05431,,496.404
125,2858.32,2798.99,0.628222,9.07696,,496.652
126,2881.18,2821.37,0.633246,9.0996,,496.903
127,2904.04,2843.75,0.63827,9.12222,,497.157
128,2926.89,2866.14,0.643294,9.14484,,497.414
129,2949.75,2888.52,0.648319,9.16747,,497.674
130,2972.61,2910.91,0.653343,9.19012,,497.938
131,2995.47,2933.29,0.658367,9.21279,,498.204
132,3018.33,2955.67,0.663391,9.23549,,498.474
133,3041.19,2978.06,0.668415,9.25824,,498.746
134,3064.05,3000.44,0.673439,9.28106,,499.023
135,3086.9,3022.83,0.678463,9.30396,,499.302
136,3109.76,3045.21,0.683487,9.32698,,499.584
137,3132.62,3067.59,0.688511,9.35017,,499.87
138,3155.48,3089.98,0.693535,9.37361,,500.158
139,3178.34,3112.36,0.698559,9.39746,,500.45
140,3201.2,3134.75,0.703583,9.42197,,500.744
141,3224.06,3157.13,0.708607,9.44763,,501.042
142,3246.91,3179.51,0.713631,9.47524,,501.343
143,3269.77,3201.9,0.718655,9.5063,,501.646
144,3292.63,3224.28,0.723679,501.953,9.54342,
145,3315.49,3246.67,0.728703,502.263,9.59122,
146,3338.35,3269.05,0.733727,502.576,9.65788,
147,3361.21,3291.44,0.738751,502.893,9.75765,
148,3384.07,3313.82,0.743775,503.214,9.91531,
149,3406.92,3336.2,0.748799,503.54,10.1733,
150,3429.78,3358.59,0.753823,503.872,10.6029,
151,3452.64,3380.97,0.758847,504.212,11.3201,
152,3475.5,3403.36,0.763871,504.56,12.5027,
153,3498.36,3425.74,0.768895,504.92,14.3982,
154,3521.22,3448.12,0.773919,505.293,17.2904,
155,3544.08,3470.51,0.778943,505.685,21.3823,
156,3566.93,3492.89,0.783967,506.101,26.5949,
157,3589.79,3515.28,0.788991,506.546,32.421,
158,3612.65,3537.66,0.794015,507.028,38.0624,
159,3635.51,3560.04,0.799039,507.558,42.8246,
160,3658.37,3582.43,0.804063,508.146,46.4101,
161,3681.23,3604.81,0.809087,508.807,48.8924,
162,3704.09,3627.2,0.814111,509.555,50.5206,
163,3726.94,3649.58,0.819135,510.405,51.5582,
164,3749.8,3671.96,0.824159,511.372,52.214,
165,3772.66,3694.35,0.829183,512.466,52.6322,
166,3795.52,3716.73,0.834207,513.694,52.906,
167,3818.38,3739.12,0.839231,515.051,53.093,
168,3841.24,3761.5,0.844255,516.524,53.228,
169,3864.09,3783.88,0.849279,518.088,53.3321,
170,3886.95,3806.27,0.854303,519.705,53.4177,
171,3909.81,3828.65,0.859327,521.333,53.4922,
172,3932.67,3851.04,0.864351,522.927,53.5601,
173,3955.53,3873.42,0.869375,524.445,53.624,
174,3978.39,3895.8,0.874399,525.855,53.6855,
175,4001.25,3918.19,0.879423,527.135,53.7455,
176,4024.1,3940.57,0.884448,528.275,53.8047,
177,4046.96,3962.96,0.889472,529.275,53.8633,
178,4069.82,3985.34,0.894496,530.14,53.9216,
179,4092.68,4007.72,0.89952,530.884,53.9798,
180,4115.54,4030.11,0.904544,531.52,54.0379,
181,4138.4,4052.49,0.909568,532.063,54.096,
182,4161.26,4074.88,0.914592,532.528,54.1543,
183,4184.11,4097.26,0.919616,532.926,54.2126,
184,4206.97,4119.65,0.92464,533.269,54.2713,
185,4229.83,4142.03,0.929664,533.568,54.3304,
186,4252.69,4164.41,0.934688,533.83,54.3902,
187,4275.55,4186.8,0.939712,534.062,54.4511,
188,4298.41,4209.18,0.944736,534.27,54.514,
189,4321.27,4231.57,0.94976,534.458,54.5802,
190,4344.12,4253.95,0.954784,534.629,54.6524,
191,4366.98,4276.33,0.959808,534.788,54.7356,
192,4389.84,4298.72,0.964832,534.935,54.8388,
193,4412.7,4321.1,0.969856,535.074,54.9794,
194,4435.56,4343.49,0.97488,535.205,55.1893,
195,4458.42,4365.87,0.979904,535.33,55.5279,
196,4481.28,4388.25,0.984928,535.45,56.1033,
197,4504.13,4410.64,0.989952,535.566,57.1072,
198,4526.99,4433.02,0.994976,535.678,58.8614,
199,4549.85,4455.41,1.0,535.788,61.855,