Folder: supplementary_data/002_Mazur_ACSApplMaterInterfaces_2024/isotherms/interpolated (part 2)

File: isotherm_TIP4P_MOF-LA2_298_N18.csv
,pressure_Pa,p/p0,fugacity_Pa,uptake,metastable_gas
0,1.0,0.000219787,0.979242,0.116669,
1,23.8585,0.00524381,23.3633,1.95384,
2,46.7171,0.0102678,45.7473,2.94727,
3,69.5756,0.0152919,68.1314,3.56809,
4,92.4342,0.0203159,90.5155,3.97905,
5,115.293,0.0253399,112.9,4.25683,
6,138.151,0.0303639,135.284,4.46322,
7,161.01,0.0353879,157.668,4.63674,
8,183.868,0.040412,180.052,4.79495,
9,206.727,0.045436,202.436,4.94467,
10,229.585,0.05046,224.82,5.08838,
11,252.444,0.055484,247.204,5.22697,
12,275.303,0.060508,269.588,5.36086,
13,298.161,0.0655321,291.972,5.49033,
14,321.02,0.0705561,314.356,5.61558,
15,343.878,0.0755801,336.74,5.73683,
16,366.737,0.0806041,359.124,5.85425,
17,389.595,0.0856281,381.508,5.96803,
18,412.454,0.0906522,403.892,6.07834,
19,435.312,0.0956762,426.276,6.18532,
20,458.171,0.1007,448.66,6.28913,
21,481.03,0.105724,471.044,6.38991,
22,503.888,0.110748,493.428,6.48779,
23,526.747,0.115772,515.812,6.58289,
24,549.605,0.120796,538.197,6.67533,
25,572.464,0.12582,560.581,6.76522,
26,595.322,0.130844,582.965,6.85266,
27,618.181,0.135868,605.349,6.93775,
28,641.039,0.140892,627.733,7.0206,
29,663.898,0.145916,650.117,7.10128,
30,686.756,0.15094,672.501,7.1799,
31,709.615,0.155964,694.885,7.25655,
32,732.474,0.160988,717.269,7.33133,
33,755.332,0.166012,739.653,7.40433,
34,778.191,0.171037,762.037,7.47568,
35,801.049,0.176061,784.421,7.54552,
36,823.908,0.181085,806.805,7.61401,
37,846.766,0.186109,829.189,7.68135,
38,869.625,0.191133,851.573,7.74779,
39,892.483,0.196157,873.957,7.81362,
40,915.342,0.201181,896.341,7.87924,
41,938.201,0.206205,918.725,7.94513,
42,961.059,0.211229,941.109,8.01193,
43,983.918,0.216253,963.494,8.08047,
44,1006.78,0.221277,985.878,8.15185,
45,1029.63,0.226301,1008.26,8.22757,
46,1052.49,0.231325,1030.65,8.30974,
47,1075.35,0.236349,1053.03,8.40146,
48,1098.21,0.241373,1075.41,8.50741,
49,1121.07,0.246397,1097.8,8.63561,
50,1143.93,0.251421,1120.18,8.81533,
51,1166.79,0.256445,1142.57,9.57613,
52,1189.64,0.261469,1164.95,24.0061,9.35867
53,1212.5,0.266493,1187.33,39.1204,9.91974
54,1235.36,0.271517,1209.72,53.898,10.6973
55,1258.22,0.276541,1232.1,54.3651,24.7212
56,1281.08,0.281565,1254.49,54.7242,
57,1303.94,0.286589,1276.87,55.0484,
58,1326.8,0.291613,1299.25,55.3517,
59,1349.65,0.296637,1321.64,55.6413,
60,1372.51,0.301661,1344.02,55.9222,
61,1395.37,0.306685,1366.41,56.1977,
62,1418.23,0.311709,1388.79,56.47,
63,1441.09,0.316733,1411.17,56.7405,
64,1463.95,0.321757,1433.56,57.0096,
65,1486.81,0.326781,1455.94,57.277,
66,1509.66,0.331805,1478.33,57.5417,
67,1532.52,0.336829,1500.71,57.8025,
68,1555.38,0.341853,1523.09,58.0577,
69,1578.24,0.346877,1545.48,58.3063,
70,1601.1,0.351901,1567.86,58.547,
71,1623.96,0.356925,1590.25,58.7794,
72,1646.82,0.361949,1612.63,59.0031,
73,1669.67,0.366973,1635.02,59.2183,
74,1692.53,0.371997,1657.4,59.4253,
75,1715.39,0.377021,1679.78,59.6248,
76,1738.25,0.382045,1702.17,59.8175,
77,1761.11,0.387069,1724.55,60.004,
78,1783.97,0.392093,1746.94,60.1851,
79,1806.83,0.397117,1769.32,60.3615,
80,1829.68,0.402141,1791.7,60.5338,
81,1852.54,0.407166,1814.09,60.7026,
82,1875.4,0.41219,1836.47,60.8682,
83,1898.26,0.417214,1858.86,61.0309,
84,1921.12,0.422238,1881.24,61.191,
85,1943.98,0.427262,1903.62,61.3484,
86,1966.84,0.432286,1926.01,61.5033,
87,1989.69,0.43731,1948.39,61.6555,
88,2012.55,0.442334,1970.78,61.8049,
89,2035.41,0.447358,1993.16,61.9515,
90,2058.27,0.452382,2015.54,62.095,
91,2081.13,0.457406,2037.93,62.2354,
92,2103.99,0.46243,2060.31,62.3726,
93,2126.85,0.467454,2082.7,62.5064,
94,2149.7,0.472478,2105.08,62.6368,
95,2172.56,0.477502,2127.46,62.7638,
96,2195.42,0.482526,2149.85,62.8875,
97,2218.28,0.48755,2172.23,63.0077,
98,2241.14,0.492574,2194.62,63.1247,
99,2264,0.497598,2217,63.2384,
100,2286.85,0.502622,2239.38,63.349,
101,2309.71,0.507646,2261.77,63.4566,
102,2332.57,0.51267,2284.15,63.5613,
103,2355.43,0.517694,2306.54,63.6632,
104,2378.29,0.522718,2328.92,63.7624,
105,2401.15,0.527742,2351.3,63.8591,
106,2424.01,0.532766,2373.69,63.9534,
107,2446.86,0.53779,2396.07,64.0454,
108,2469.72,0.542814,2418.46,64.1353,
109,2492.58,0.547838,2440.84,64.2232,
110,2515.44,0.552862,2463.23,64.3091,
111,2538.3,0.557886,2485.61,64.3933,
112,2561.16,0.56291,2507.99,64.4758,
113,2584.02,0.567934,2530.38,64.5567,
114,2606.87,0.572958,2552.76,64.6361,
115,2629.73,0.577982,2575.15,64.7142,
116,2652.59,0.583006,2597.53,64.791,
117,2675.45,0.58803,2619.91,64.8666,
118,2698.31,0.593054,2642.3,64.941,
119,2721.17,0.598078,2664.68,65.0144,
120,2744.03,0.603102,2687.07,65.0869,
121,2766.88,0.608126,2709.45,65.1583,
122,2789.74,0.61315,2731.83,65.229,
123,2812.6,0.618174,2754.22,65.2987,
124,2835.46,0.623198,2776.6,65.3677,
125,2858.32,0.628222,2798.99,65.4359,
126,2881.18,0.633246,2821.37,65.5033,
127,2904.04,0.63827,2843.75,65.57,
128,2926.89,0.643294,2866.14,65.636,
129,2949.75,0.648319,2888.52,65.7013,
130,2972.61,0.653343,2910.91,65.766,
131,2995.47,0.658367,2933.29,65.8299,
132,3018.33,0.663391,2955.67,65.8931,
133,3041.19,0.668415,2978.06,65.9556,
134,3064.05,0.673439,3000.44,66.0175,
135,3086.9,0.678463,3022.83,66.0786,
136,3109.76,0.683487,3045.21,66.139,
137,3132.62,0.688511,3067.59,66.1988,
138,3155.48,0.693535,3089.98,66.2578,
139,3178.34,0.698559,3112.36,66.316,
140,3201.2,0.703583,3134.75,66.3736,
141,3224.06,0.708607,3157.13,66.4304,
142,3246.91,0.713631,3179.51,66.4865,
143,3269.77,0.718655,3201.9,66.5418,
144,3292.63,0.723679,3224.28,66.5964,
145,3315.49,0.728703,3246.67,66.6503,
146,3338.35,0.733727,3269.05,66.7034,
147,3361.21,0.738751,3291.44,66.7558,
148,3384.07,0.743775,3313.82,66.8075,
149,3406.92,0.748799,3336.2,66.8584,
150,3429.78,0.753823,3358.59,66.9086,
151,3452.64,0.758847,3380.97,66.9581,
152,3475.5,0.763871,3403.36,67.0069,
153,3498.36,0.768895,3425.74,67.055,
154,3521.22,0.773919,3448.12,67.1024,
155,3544.08,0.778943,3470.51,67.1492,
156,3566.93,0.783967,3492.89,67.1952,
157,3589.79,0.788991,3515.28,67.2406,
158,3612.65,0.794015,3537.66,67.2854,
159,3635.51,0.799039,3560.04,67.3295,
160,3658.37,0.804063,3582.43,67.373,
161,3681.23,0.809087,3604.81,67.4159,
162,3704.09,0.814111,3627.2,67.4582,
163,3726.94,0.819135,3649.58,67.4999,
164,3749.8,0.824159,3671.96,67.541,
165,3772.66,0.829183,3694.35,67.5815,
166,3795.52,0.834207,3716.73,67.6215,
167,3818.38,0.839231,3739.12,67.6609,
168,3841.24,0.844255,3761.5,67.6998,
169,3864.09,0.849279,3783.88,67.7382,
170,3886.95,0.854303,3806.27,67.7761,
171,3909.81,0.859327,3828.65,67.8134,
172,3932.67,0.864351,3851.04,67.8503,
173,3955.53,0.869375,3873.42,67.8867,
174,3978.39,0.874399,3895.8,67.9226,
175,4001.25,0.879423,3918.19,67.9581,
176,4024.1,0.884448,3940.57,67.9931,
177,4046.96,0.889472,3962.96,68.0277,
178,4069.82,0.894496,3985.34,68.0619,
179,4092.68,0.89952,4007.72,68.0956,
180,4115.54,0.904544,4030.11,68.129,
181,4138.4,0.909568,4052.49,68.162,
182,4161.26,0.914592,4074.88,68.1945,
183,4184.11,0.919616,4097.26,68.2267,
184,4206.97,0.92464,4119.65,68.2586,
185,4229.83,0.929664,4142.03,68.2901,
186,4252.69,0.934688,4164.41,68.3212,
187,4275.55,0.939712,4186.8,68.3521,
188,4298.41,0.944736,4209.18,68.3826,
189,4321.27,0.94976,4231.57,68.4128,
190,4344.12,0.954784,4253.95,68.4427,
191,4366.98,0.959808,4276.33,68.4723,
192,4389.84,0.964832,4298.72,68.5016,
193,4412.7,0.969856,4321.1,68.5307,
194,4435.56,0.97488,4343.49,68.5595,
195,4458.42,0.979904,4365.87,68.5881,
196,4481.28,0.984928,4388.25,68.6164,
197,4504.13,0.989952,4410.64,68.6445,
198,4526.99,0.994976,4433.02,68.6724,
199,4549.85,1.0,4455.41,68.7001,

File: isotherm_TIP4P_NU-1000_298_N12.csv
,pressure_Pa,fugacity_Pa,p/p0,uptake,metastable_gas,metastable_liq
0,1.0,0.979242,0.000219787,0.186834,,
1,23.8585,23.3633,0.00524381,4.14881,,
2,46.7171,45.7473,0.0102678,7.59742,,
3,69.5756,68.1314,0.0152919,10.6264,,
4,92.4342,90.5155,0.0203159,13.3079,,
5,115.293,112.9,0.0253399,15.6985,,
6,138.151,135.284,0.0303639,17.8431,,
7,161.01,157.668,0.0353879,19.7778,,
8,183.868,180.052,0.040412,21.532,,
9,206.727,202.436,0.045436,23.1299,,
10,229.585,224.82,0.05046,24.5913,,
11,252.444,247.204,0.055484,25.9332,,
12,275.303,269.588,0.060508,27.1695,,
13,298.161,291.972,0.0655321,28.3123,,
14,321.02,314.356,0.0705561,29.3718,,
15,343.878,336.74,0.0755801,30.3568,,
16,366.737,359.124,0.0806041,31.2748,,
17,389.595,381.508,0.0856281,32.1326,,
18,412.454,403.892,0.0906522,32.9357,,
19,435.312,426.276,0.0956762,33.6893,,
20,458.171,448.66,0.1007,34.3979,,
21,481.03,471.044,0.105724,35.0653,,
22,503.888,493.428,0.110748,35.695,,
23,526.747,515.812,0.115772,36.2902,,
24,549.605,538.197,0.120796,36.8536,,
25,572.464,560.581,0.12582,37.3876,,
26,595.322,582.965,0.130844,37.8946,,
27,618.181,605.349,0.135868,38.3765,,
28,641.039,627.733,0.140892,38.8351,,
29,663.898,650.117,0.145916,39.2721,,
30,686.756,672.501,0.15094,39.689,,
31,709.615,694.885,0.155964,40.0871,,
32,732.474,717.269,0.160988,40.4677,,
33,755.332,739.653,0.166012,40.832,,
34,778.191,762.037,0.171037,41.1808,,
35,801.049,784.421,0.176061,41.5153,,
36,823.908,806.805,0.181085,41.8362,,
37,846.766,829.189,0.186109,42.1444,,
38,869.625,851.573,0.191133,42.4406,,
39,892.483,873.957,0.196157,42.7255,,
40,915.342,896.341,0.201181,42.9997,,
41,938.201,918.725,0.206205,43.2639,,
42,961.059,941.109,0.211229,43.5186,,
43,983.918,963.494,0.216253,43.7642,,
44,1006.78,985.878,0.221277,44.0012,,
45,1029.63,1008.26,0.226301,44.2302,,
46,1052.49,1030.65,0.231325,44.4514,,
47,1075.35,1053.03,0.236349,44.6654,,
48,1098.21,1075.41,0.241373,44.8723,,
49,1121.07,1097.8,0.246397,45.0727,,
50,1143.93,1120.18,0.251421,45.2667,,
51,1166.79,1142.57,0.256445,45.4547,,
52,1189.64,1164.95,0.261469,45.6369,,
53,1212.5,1187.33,0.266493,45.8137,,
54,1235.36,1209.72,0.271517,45.9852,,
55,1258.22,1232.1,0.276541,46.1517,,
56,1281.08,1254.49,0.281565,46.3134,,
57,1303.94,1276.87,0.286589,46.4705,,
58,1326.8,1299.25,0.291613,46.6233,,
59,1349.65,1321.64,0.296637,46.7718,,
60,1372.51,1344.02,0.301661,46.9162,,
61,1395.37,1366.41,0.306685,47.0568,,
62,1418.23,1388.79,0.311709,47.1937,,
63,1441.09,1411.17,0.316733,47.3269,,
64,1463.95,1433.56,0.321757,47.4568,,
65,1486.81,1455.94,0.326781,47.5833,,
66,1509.66,1478.33,0.331805,47.7066,,
67,1532.52,1500.71,0.336829,47.8269,,
68,1555.38,1523.09,0.341853,47.9442,,
69,1578.24,1545.48,0.346877,48.0587,,
70,1601.1,1567.86,0.351901,48.1704,,
71,1623.96,1590.25,0.356925,48.2795,,
72,1646.82,1612.63,0.361949,48.386,,
73,1669.67,1635.02,0.366973,48.4901,,
74,1692.53,1657.4,0.371997,48.5918,,
75,1715.39,1679.78,0.377021,48.6912,,
76,1738.25,1702.17,0.382045,48.7884,,
77,1761.11,1724.55,0.387069,48.8834,,
78,1783.97,1746.94,0.392093,48.9764,,
79,1806.83,1769.32,0.397117,49.0673,,
80,1829.68,1791.7,0.402141,49.1564,,
81,1852.54,1814.09,0.407166,49.2435,,
82,1875.4,1836.47,0.41219,49.3288,,
83,1898.26,1858.86,0.417214,49.4124,,
84,1921.12,1881.24,0.422238,49.4942,,
85,1943.98,1903.62,0.427262,49.5745,,
86,1966.84,1926.01,0.432286,49.6531,,
87,1989.69,1948.39,0.43731,49.7301,,
88,2012.55,1970.78,0.442334,49.8057,,
89,2035.41,1993.16,0.447358,49.8798,,
90,2058.27,2015.54,0.452382,49.9524,,
91,2081.13,2037.93,0.457406,50.0238,,
92,2103.99,2060.31,0.46243,50.0937,,
93,2126.85,2082.7,0.467454,50.1624,,
94,2149.7,2105.08,0.472478,50.2298,,
95,2172.56,2127.46,0.477502,50.2961,,
96,2195.42,2149.85,0.482526,50.3611,,
97,2218.28,2172.23,0.48755,50.425,,
98,2241.14,2194.62,0.492574,50.4877,,
99,2264,2217,0.497598,50.5494,,447.003
100,2286.85,2239.38,0.502622,50.6101,,451.073
101,2309.71,2261.77,0.507646,50.6697,,456.49
102,2332.57,2284.15,0.51267,50.7283,,461.854
103,2355.43,2306.54,0.517694,50.786,,466.637
104,2378.29,2328.92,0.522718,50.8427,,470.732
105,2401.15,2351.3,0.527742,50.8985,,474.365
106,2424.01,2373.69,0.532766,50.9535,,477.618
107,2446.86,2396.07,0.53779,51.0076,,480.524
108,2469.72,2418.46,0.542814,51.0608,,483.105
109,2492.58,2440.84,0.547838,51.1133,,485.39
110,2515.44,2463.23,0.552862,51.1649,,487.408
111,2538.3,2485.61,0.557886,51.2158,,489.193
112,2561.16,2507.99,0.56291,51.266,,490.78
113,2584.02,2530.38,0.567934,51.3154,,492.199
114,2606.87,2552.76,0.572958,51.3642,,493.478
115,2629.73,2575.15,0.577982,51.4122,,494.641
116,2652.59,2597.53,0.583006,51.4596,,495.708
117,2675.45,2619.91,0.58803,51.5064,,496.695
118,2698.31,2642.3,0.593054,51.5526,,497.616
119,2721.17,2664.68,0.598078,51.5981,,498.482
120,2744.03,2687.07,0.603102,51.6431,,499.301
121,2766.88,2709.45,0.608126,51.6875,,500.082
122,2789.74,2731.83,0.61315,51.7314,,500.829
123,2812.6,2754.22,0.618174,51.7748,,501.548
124,2835.46,2776.6,0.623198,51.8176,,502.241
125,2858.32,2798.99,0.628222,51.86,,502.912
126,2881.18,2821.37,0.633246,51.9018,,503.563
127,2904.04,2843.75,0.63827,51.9432,,504.197
128,2926.89,2866.14,0.643294,51.9842,,504.814
129,2949.75,2888.52,0.648319,52.0248,,505.416
130,2972.61,2910.91,0.653343,52.0649,,506.004
131,2995.47,2933.29,0.658367,52.1046,,506.58
132,3018.33,2955.67,0.663391,52.144,,507.142
133,3041.19,2978.06,0.668415,52.183,,507.694
134,3064.05,3000.44,0.673439,52.2216,,508.234
135,3086.9,3022.83,0.678463,52.2599,,508.763
136,3109.76,3045.21,0.683487,52.2979,,509.282
137,3132.62,3067.59,0.688511,52.3355,,509.791
138,3155.48,3089.98,0.693535,52.3729,,510.29
139,3178.34,3112.36,0.698559,52.41,,510.78
140,3201.2,3134.75,0.703583,52.4468,,511.261
141,3224.06,3157.13,0.708607,52.4834,,511.734
142,3246.91,3179.51,0.713631,52.5198,,512.198
143,3269.77,3201.9,0.718655,512.654,52.5559,
144,3292.63,3224.28,0.723679,513.101,52.5918,
145,3315.49,3246.67,0.728703,513.541,52.6275,
146,3338.35,3269.05,0.733727,513.973,52.663,
147,3361.21,3291.44,0.738751,514.398,52.6984,
148,3384.07,3313.82,0.743775,514.816,52.7336,
149,3406.92,3336.2,0.748799,515.227,52.7687,
150,3429.78,3358.59,0.753823,515.631,52.8036,
151,3452.64,3380.97,0.758847,516.028,52.8385,
152,3475.5,3403.36,0.763871,516.418,52.8732,
153,3498.36,3425.74,0.768895,516.803,52.9079,
154,3521.22,3448.12,0.773919,517.181,52.9425,
155,3544.08,3470.51,0.778943,517.553,52.977,
156,3566.93,3492.89,0.783967,517.919,53.0116,
157,3589.79,3515.28,0.788991,518.28,53.0461,
158,3612.65,3537.66,0.794015,518.634,53.0805,
159,3635.51,3560.04,0.799039,518.984,53.1151,
160,3658.37,3582.43,0.804063,519.328,53.1496,
161,3681.23,3604.81,0.809087,519.666,53.1842,
162,3704.09,3627.2,0.814111,520,53.2188,
163,3726.94,3649.58,0.819135,520.328,53.2536,
164,3749.8,3671.96,0.824159,520.652,53.2884,
165,3772.66,3694.35,0.829183,520.971,53.3234,
166,3795.52,3716.73,0.834207,521.285,53.3584,
167,3818.38,3739.12,0.839231,521.594,53.3937,
168,3841.24,3761.5,0.844255,521.9,53.4291,
169,3864.09,3783.88,0.849279,522.2,53.4647,
170,3886.95,3806.27,0.854303,522.497,53.5006,
171,3909.81,3828.65,0.859327,522.789,53.5367,
172,3932.67,3851.04,0.864351,523.077,53.5731,
173,3955.53,3873.42,0.869375,523.361,53.6097,
174,3978.39,3895.8,0.874399,523.641,53.6467,
175,4001.25,3918.19,0.879423,523.917,53.6841,
176,4024.1,3940.57,0.884448,524.19,53.7218,
177,4046.96,3962.96,0.889472,524.459,53.7599,
178,4069.82,3985.34,0.894496,524.724,53.7984,
179,4092.68,4007.72,0.89952,524.985,53.8375,
180,4115.54,4030.11,0.904544,525.243,53.877,
181,4138.4,4052.49,0.909568,525.498,53.9171,
182,4161.26,4074.88,0.914592,525.749,53.9577,
183,4184.11,4097.26,0.919616,525.997,53.999,
184,4206.97,4119.65,0.92464,526.242,54.0409,
185,4229.83,4142.03,0.929664,526.484,54.0836,
186,4252.69,4164.41,0.934688,526.723,54.127,
187,4275.55,4186.8,0.939712,526.958,54.1712,
188,4298.41,4209.18,0.944736,527.191,54.2163,
189,4321.27,4231.57,0.94976,527.42,54.2624,
190,4344.12,4253.95,0.954784,527.647,54.3094,
191,4366.98,4276.33,0.959808,527.871,54.3575,
192,4389.84,4298.72,0.964832,528.092,54.4067,
193,4412.7,4321.1,0.969856,528.311,54.4572,
194,4435.56,4343.49,0.97488,528.526,54.509,
195,4458.42,4365.87,0.979904,528.74,54.5621,
196,4481.28,4388.25,0.984928,528.95,54.6168,
197,4504.13,4410.64,0.989952,529.158,54.6731,
198,4526.99,4433.02,0.994976,529.364,54.7312,
199,4549.85,4455.41,1.0,529.567,54.7911,

File: isotherm_TIP4P_NU-1000_298_N60.csv
,pressure_Pa,fugacity_Pa,p/p0,uptake,metastable_gas,metastable_liq
0,1.0,0.979242,0.000219787,0.0145918,,
1,23.8585,23.3633,0.00524381,0.338331,,
2,46.7171,45.7473,0.0102678,0.644329,,
3,69.5756,68.1314,0.0152919,0.934004,,
4,92.4342,90.5155,0.0203159,1.20863,,
5,115.293,112.9,0.0253399,1.46935,,
6,138.151,135.284,0.0303639,1.71719,,
7,161.01,157.668,0.0353879,1.95308,,
8,183.868,180.052,0.040412,2.17788,,
9,206.727,202.436,0.045436,2.39233,,
10,229.585,224.82,0.05046,2.59715,,
11,252.444,247.204,0.055484,2.79296,,
12,275.303,269.588,0.060508,2.98035,,
13,298.161,291.972,0.0655321,3.15985,,
14,321.02,314.356,0.0705561,3.33195,,
15,343.878,336.74,0.0755801,3.49709,,
16,366.737,359.124,0.0806041,3.65569,,
17,389.595,381.508,0.0856281,3.80813,,
18,412.454,403.892,0.0906522,3.95476,,
19,435.312,426.276,0.0956762,4.09592,,
20,458.171,448.66,0.1007,4.23189,,
21,481.03,471.044,0.105724,4.36296,,
22,503.888,493.428,0.110748,4.48939,,
23,526.747,515.812,0.115772,4.61142,,
24,549.605,538.197,0.120796,4.72928,,
25,572.464,560.581,0.12582,4.84318,,
26,595.322,582.965,0.130844,4.95331,,
27,618.181,605.349,0.135868,5.05986,,
28,641.039,627.733,0.140892,5.163,,
29,663.898,650.117,0.145916,5.26289,,
30,686.756,672.501,0.15094,5.35969,,
31,709.615,694.885,0.155964,5.45353,,
32,732.474,717.269,0.160988,5.54455,,
33,755.332,739.653,0.166012,5.63287,,
34,778.191,762.037,0.171037,5.71861,,
35,801.049,784.421,0.176061,5.80189,,
36,823.908,806.805,0.181085,5.88281,,
37,846.766,829.189,0.186109,5.96147,,
38,869.625,851.573,0.191133,6.03796,,
39,892.483,873.957,0.196157,6.11237,,
40,915.342,896.341,0.201181,6.18479,,
41,938.201,918.725,0.206205,6.25529,,
42,961.059,941.109,0.211229,6.32396,,
43,983.918,963.494,0.216253,6.39086,,
44,1006.78,985.878,0.221277,6.45606,,
45,1029.63,1008.26,0.226301,6.51963,,
46,1052.49,1030.65,0.231325,6.58163,,
47,1075.35,1053.03,0.236349,6.64212,,
48,1098.21,1075.41,0.241373,6.70115,,
49,1121.07,1097.8,0.246397,6.75878,,
50,1143.93,1120.18,0.251421,6.81506,,
51,1166.79,1142.57,0.256445,6.87003,,
52,1189.64,1164.95,0.261469,6.92375,,
53,1212.5,1187.33,0.266493,6.97627,,
54,1235.36,1209.72,0.271517,7.02761,,
55,1258.22,1232.1,0.276541,7.07783,,
56,1281.08,1254.49,0.281565,7.12696,,
57,1303.94,1276.87,0.286589,7.17503,,
58,1326.8,1299.25,0.291613,7.2221,,
59,1349.65,1321.64,0.296637,7.26819,,
60,1372.51,1344.02,0.301661,7.31333,,
61,1395.37,1366.41,0.306685,7.35756,,
62,1418.23,1388.79,0.311709,7.4009,,
63,1441.09,1411.17,0.316733,7.44339,,
64,1463.95,1433.56,0.321757,7.48506,,
65,1486.81,1455.94,0.326781,7.52593,,
66,1509.66,1478.33,0.331805,7.56602,,
67,1532.52,1500.71,0.336829,7.60538,,
68,1555.38,1523.09,0.341853,7.64401,,
69,1578.24,1545.48,0.346877,7.68194,,
70,1601.1,1567.86,0.351901,7.7192,,
71,1623.96,1590.25,0.356925,7.75581,,
72,1646.82,1612.63,0.361949,7.79179,,
73,1669.67,1635.02,0.366973,7.82715,,
74,1692.53,1657.4,0.371997,7.86193,,
75,1715.39,1679.78,0.377021,7.89614,,
76,1738.25,1702.17,0.382045,7.92979,,
77,1761.11,1724.55,0.387069,7.96291,,
78,1783.97,1746.94,0.392093,7.99551,,
79,1806.83,1769.32,0.397117,8.02762,,
80,1829.68,1791.7,0.402141,8.05924,,
81,1852.54,1814.09,0.407166,8.0904,,
82,1875.4,1836.47,0.41219,8.1211,,
83,1898.26,1858.86,0.417214,8.15137,,
84,1921.12,1881.24,0.422238,8.18122,,
85,1943.98,1903.62,0.427262,8.21066,,
86,1966.84,1926.01,0.432286,8.23971,,
87,1989.69,1948.39,0.43731,8.26838,,
88,2012.55,1970.78,0.442334,8.29668,,
89,2035.41,1993.16,0.447358,8.32463,,
90,2058.27,2015.54,0.452382,8.35223,,
91,2081.13,2037.93,0.457406,8.37951,,
92,2103.99,2060.31,0.46243,8.40647,,
93,2126.85,2082.7,0.467454,8.43313,,
94,2149.7,2105.08,0.472478,8.45949,,
95,2172.56,2127.46,0.477502,8.48558,,381.61
96,2195.42,2149.85,0.482526,8.51138,,383.948
97,2218.28,2172.23,0.48755,8.53693,,386.22
98,2241.14,2194.62,0.492574,8.56223,,388.398
99,2264,2217,0.497598,8.58728,,390.34
100,2286.85,2239.38,0.502622,8.61211,,392.417
101,2309.71,2261.77,0.507646,8.63671,,394.367
102,2332.57,2284.15,0.51267,8.6611,,396.243
103,2355.43,2306.54,0.517694,8.68529,,398.074
104,2378.29,2328.92,0.522718,8.70929,,399.875
105,2401.15,2351.3,0.527742,8.7331,,401.655
106,2424.01,2373.69,0.532766,8.75674,,403.418
107,2446.86,2396.07,0.53779,8.78021,,405.168
108,2469.72,2418.46,0.542814,8.80353,,406.91
109,2492.58,2440.84,0.547838,8.82669,,408.663
110,2515.44,2463.23,0.552862,8.84972,,410.487
111,2538.3,2485.61,0.557886,8.87261,,412.608
112,2561.16,2507.99,0.56291,8.89538,,415.853
113,2584.02,2530.38,0.567934,8.91803,,422.884
114,2606.87,2552.76,0.572958,8.94058,,439.086
115,2629.73,2575.15,0.577982,8.96302,,463.887
116,2652.59,2597.53,0.583006,8.98538,,482.946
117,2675.45,2619.91,0.58803,9.00764,,491.394
118,2698.31,2642.3,0.593054,9.02984,,494.501
119,2721.17,2664.68,0.598078,9.05196,,495.807
120,2744.03,2687.07,0.603102,9.07402,,496.564
121,2766.88,2709.45,0.608126,9.09603,,497.152
122,2789.74,2731.83,0.61315,9.118,,497.685
123,2812.6,2754.22,0.618174,9.13992,,498.195
124,2835.46,2776.6,0.623198,9.16182,,498.694
125,2858.32,2798.99,0.628222,9.18369,,499.186
126,2881.18,2821.37,0.633246,9.20554,,499.672
127,2904.04,2843.75,0.63827,9.22738,,500.152
128,2926.89,2866.14,0.643294,9.24923,,500.627
129,2949.75,2888.52,0.648319,9.27108,,501.097
130,2972.61,2910.91,0.653343,9.29294,,501.562
131,2995.47,2933.29,0.658367,9.31483,,502.024
132,3018.33,2955.67,0.663391,9.33675,,502.481
133,3041.19,2978.06,0.668415,9.3587,,502.934
134,3064.05,3000.44,0.673439,9.38069,,503.384
135,3086.9,3022.83,0.678463,9.40274,,503.83
136,3109.76,3045.21,0.683487,9.42484,,504.273
137,3132.62,3067.59,0.688511,9.44702,,504.713
138,3155.48,3089.98,0.693535,9.46926,,505.15
139,3178.34,3112.36,0.698559,9.49159,,505.584
140,3201.2,3134.75,0.703583,9.51401,,506.016
141,3224.06,3157.13,0.708607,9.53653,,506.444
142,3246.91,3179.51,0.713631,9.55915,,506.87
143,3269.77,3201.9,0.718655,9.58189,,507.293
144,3292.63,3224.28,0.723679,9.60475,,507.713
145,3315.49,3246.67,0.728703,9.62775,,508.131
146,3338.35,3269.05,0.733727,9.65088,,508.545
147,3361.21,3291.44,0.738751,9.67415,,508.956
148,3384.07,3313.82,0.743775,9.69759,,509.364
149,3406.92,3336.2,0.748799,9.72119,,509.768
150,3429.78,3358.59,0.753823,9.74496,,510.168
151,3452.64,3380.97,0.758847,9.76892,,510.565
152,3475.5,3403.36,0.763871,9.79306,,510.957
153,3498.36,3425.74,0.768895,9.81741,,511.345
154,3521.22,3448.12,0.773919,9.84197,,511.729
155,3544.08,3470.51,0.778943,512.108,9.86674,
156,3566.93,3492.89,0.783967,512.481,9.89175,
157,3589.79,3515.28,0.788991,512.85,9.91699,
158,3612.65,3537.66,0.794015,513.213,9.94249,
159,3635.51,3560.04,0.799039,513.57,9.96824,
160,3658.37,3582.43,0.804063,513.922,9.99426,
161,3681.23,3604.81,0.809087,514.269,10.0206,
162,3704.09,3627.2,0.814111,514.609,10.0471,
163,3726.94,3649.58,0.819135,514.943,10.074,
164,3749.8,3671.96,0.824159,515.272,10.1012,
165,3772.66,3694.35,0.829183,515.594,10.1288,
166,3795.52,3716.73,0.834207,515.911,10.1566,
167,3818.38,3739.12,0.839231,516.222,10.1848,
168,3841.24,3761.5,0.844255,516.527,10.2134,
169,3864.09,3783.88,0.849279,516.826,10.2423,
170,3886.95,3806.27,0.854303,517.119,10.2716,
171,3909.81,3828.65,0.859327,517.407,10.3013,
172,3932.67,3851.04,0.864351,517.689,10.3314,
173,3955.53,3873.42,0.869375,517.966,10.3619,
174,3978.39,3895.8,0.874399,518.238,10.3929,
175,4001.25,3918.19,0.879423,518.505,10.4243,
176,4024.1,3940.57,0.884448,518.767,10.4562,
177,4046.96,3962.96,0.889472,519.024,10.4885,
178,4069.82,3985.34,0.894496,519.277,10.5213,
179,4092.68,4007.72,0.89952,519.525,10.5546,
180,4115.54,4030.11,0.904544,519.769,10.5884,
181,4138.4,4052.49,0.909568,520.009,10.6228,
182,4161.26,4074.88,0.914592,520.245,10.6577,
183,4184.11,4097.26,0.919616,520.477,10.6931,
184,4206.97,4119.65,0.92464,520.706,10.7291,
185,4229.83,4142.03,0.929664,520.931,10.7657,
186,4252.69,4164.41,0.934688,521.154,10.8029,
187,4275.55,4186.8,0.939712,521.372,10.8407,
188,4298.41,4209.18,0.944736,521.588,10.8792,
189,4321.27,4231.57,0.94976,521.802,10.9183,
190,4344.12,4253.95,0.954784,522.012,10.958,
191,4366.98,4276.33,0.959808,522.22,10.9985,
192,4389.84,4298.72,0.964832,522.426,11.0396,
193,4412.7,4321.1,0.969856,522.629,11.0814,
194,4435.56,4343.49,0.97488,522.83,11.124,
195,4458.42,4365.87,0.979904,523.029,11.1673,
196,4481.28,4388.25,0.984928,523.226,11.2114,
197,4504.13,4410.64,0.989952,523.422,11.2563,
198,4526.99,4433.02,0.994976,523.615,11.302,
199,4549.85,4455.41,1.0,523.807,11.3485,