Folder: supplementary_data/002_Mazur_ACSApplMaterInterfaces_2024/isotherms/reference

Note: README.md
# Supplementary data

Here you can find supplementary data to my published research. Mostly input files and raw data.

File: isotherm_TIP4P_MOF-303_298_N745.csv
,pressure_Pa,fugacity_Pa,p/p0,uptake
0,1.0,0.979242,0.000219787,4.01402
1,23.8585,23.3633,0.00524381,4.3761
2,46.7171,45.7473,0.0102678,4.74814
3,69.5756,68.1314,0.0152919,5.10118
4,92.4342,90.5155,0.0203159,5.45116
5,115.293,112.9,0.0253399,5.76601
6,138.151,135.284,0.0303639,6.04725
7,161.01,157.668,0.0353879,6.33059
8,183.868,180.052,0.040412,6.62532
9,206.727,202.436,0.045436,6.92171
10,229.585,224.82,0.05046,7.21648
11,252.444,247.204,0.055484,7.51386
12,275.303,269.588,0.060508,7.81687
13,298.161,291.972,0.0655321,8.13678
14,321.02,314.356,0.0705561,8.49999
15,343.878,336.74,0.0755801,8.93714
16,366.737,359.124,0.0806041,9.47817
17,389.595,381.508,0.0856281,10.1546
18,412.454,403.892,0.0906522,10.9878
19,435.312,426.276,0.0956762,12.0809
20,458.171,448.66,0.1007,13.6867
21,481.03,471.044,0.105724,15.9377
22,503.888,493.428,0.110748,18.787
23,526.747,515.812,0.115772,21.7394
24,549.605,538.197,0.120796,24.0557
25,572.464,560.581,0.12582,25.6954
26,595.322,582.965,0.130844,26.8501
27,618.181,605.349,0.135868,27.7003
28,641.039,627.733,0.140892,28.3769
29,663.898,650.117,0.145916,28.9334
30,686.756,672.501,0.15094,29.3874
31,709.615,694.885,0.155964,29.7545
32,732.474,717.269,0.160988,30.0543
33,755.332,739.653,0.166012,30.3058
34,778.191,762.037,0.171037,30.5239
35,801.049,784.421,0.176061,30.7186
36,823.908,806.805,0.181085,30.8961
37,846.766,829.189,0.186109,31.06
38,869.625,851.573,0.191133,31.2125
39,892.483,873.957,0.196157,31.3546
40,915.342,896.341,0.201181,31.4869
41,938.201,918.725,0.206205,31.61
42,961.059,941.109,0.211229,31.7245
43,983.918,963.494,0.216253,31.8311
44,1006.78,985.878,0.221277,31.9305
45,1029.63,1008.26,0.226301,32.0235
46,1052.49,1030.65,0.231325,32.1109
47,1075.35,1053.03,0.236349,32.1935
48,1098.21,1075.41,0.241373,32.2718
49,1121.07,1097.8,0.246397,32.3465
50,1143.93,1120.18,0.251421,32.4179
51,1166.79,1142.57,0.256445,32.4864
52,1189.64,1164.95,0.261469,32.5523
53,1212.5,1187.33,0.266493,32.6159
54,1235.36,1209.72,0.271517,32.6771
55,1258.22,1232.1,0.276541,32.7363
56,1281.08,1254.49,0.281565,32.7934
57,1303.94,1276.87,0.286589,32.8485
58,1326.8,1299.25,0.291613,32.9016
59,1349.65,1321.64,0.296637,32.9529
60,1372.51,1344.02,0.301661,33.0023
61,1395.37,1366.41,0.306685,33.0498
62,1418.23,1388.79,0.311709,33.0957
63,1441.09,1411.17,0.316733,33.1399
64,1463.95,1433.56,0.321757,33.1826
65,1486.81,1455.94,0.326781,33.2238
66,1509.66,1478.33,0.331805,33.2636
67,1532.52,1500.71,0.336829,33.3022
68,1555.38,1523.09,0.341853,33.3397
69,1578.24,1545.48,0.346877,33.3761
70,1601.1,1567.86,0.351901,33.4115
71,1623.96,1590.25,0.356925,33.4461
72,1646.82,1612.63,0.361949,33.4799
73,1669.67,1635.02,0.366973,33.513
74,1692.53,1657.4,0.371997,33.5455
75,1715.39,1679.78,0.377021,33.5775
76,1738.25,1702.17,0.382045,33.6089
77,1761.11,1724.55,0.387069,33.64
78,1783.97,1746.94,0.392093,33.6707
79,1806.83,1769.32,0.397117,33.701
80,1829.68,1791.7,0.402141,33.731
81,1852.54,1814.09,0.407166,33.7608
82,1875.4,1836.47,0.41219,33.7903
83,1898.26,1858.86,0.417214,33.8196
84,1921.12,1881.24,0.422238,33.8486
85,1943.98,1903.62,0.427262,33.8775
86,1966.84,1926.01,0.432286,33.9061
87,1989.69,1948.39,0.43731,33.9346
88,2012.55,1970.78,0.442334,33.9628
89,2035.41,1993.16,0.447358,33.9909
90,2058.27,2015.54,0.452382,34.0187
91,2081.13,2037.93,0.457406,34.0462
92,2103.99,2060.31,0.46243,34.0736
93,2126.85,2082.7,0.467454,34.1006
94,2149.7,2105.08,0.472478,34.1273
95,2172.56,2127.46,0.477502,34.1538
96,2195.42,2149.85,0.482526,34.1799
97,2218.28,2172.23,0.48755,34.2057
98,2241.14,2194.62,0.492574,34.2311
99,2264,2217,0.497598,34.2562
100,2286.85,2239.38,0.502622,34.2809
101,2309.71,2261.77,0.507646,34.3052
102,2332.57,2284.15,0.51267,34.3291
103,2355.43,2306.54,0.517694,34.3526
104,2378.29,2328.92,0.522718,34.3757
105,2401.15,2351.3,0.527742,34.3984
106,2424.01,2373.69,0.532766,34.4206
107,2446.86,2396.07,0.53779,34.4425
108,2469.72,2418.46,0.542814,34.464
109,2492.58,2440.84,0.547838,34.485
110,2515.44,2463.23,0.552862,34.5057
111,2538.3,2485.61,0.557886,34.526
112,2561.16,2507.99,0.56291,34.5459
113,2584.02,2530.38,0.567934,34.5655
114,2606.87,2552.76,0.572958,34.5847
115,2629.73,2575.15,0.577982,34.6036
116,2652.59,2597.53,0.583006,34.6221
117,2675.45,2619.91,0.58803,34.6404
118,2698.31,2642.3,0.593054,34.6583
119,2721.17,2664.68,0.598078,34.6759
120,2744.03,2687.07,0.603102,34.6933
121,2766.88,2709.45,0.608126,34.7104
122,2789.74,2731.83,0.61315,34.7272
123,2812.6,2754.22,0.618174,34.7438
124,2835.46,2776.6,0.623198,34.7602
125,2858.32,2798.99,0.628222,34.7763
126,2881.18,2821.37,0.633246,34.7923
127,2904.04,2843.75,0.63827,34.8081
128,2926.89,2866.14,0.643294,34.8237
129,2949.75,2888.52,0.648319,34.8391
130,2972.61,2910.91,0.653343,34.8543
131,2995.47,2933.29,0.658367,34.8694
132,3018.33,2955.67,0.663391,34.8844
133,3041.19,2978.06,0.668415,34.8992
134,3064.05,3000.44,0.673439,34.9139
135,3086.9,3022.83,0.678463,34.9285
136,3109.76,3045.21,0.683487,34.9429
137,3132.62,3067.59,0.688511,34.9572
138,3155.48,3089.98,0.693535,34.9715
139,3178.34,3112.36,0.698559,34.9856
140,3201.2,3134.75,0.703583,34.9996
141,3224.06,3157.13,0.708607,35.0136
142,3246.91,3179.51,0.713631,35.0274
143,3269.77,3201.9,0.718655,35.0412
144,3292.63,3224.28,0.723679,35.0549
145,3315.49,3246.67,0.728703,35.0685
146,3338.35,3269.05,0.733727,35.082
147,3361.21,3291.44,0.738751,35.0955
148,3384.07,3313.82,0.743775,35.1088
149,3406.92,3336.2,0.748799,35.1221
150,3429.78,3358.59,0.753823,35.1353
151,3452.64,3380.97,0.758847,35.1485
152,3475.5,3403.36,0.763871,35.1615
153,3498.36,3425.74,0.768895,35.1745
154,3521.22,3448.12,0.773919,35.1874
155,3544.08,3470.51,0.778943,35.2003
156,3566.93,3492.89,0.783967,35.213
157,3589.79,3515.28,0.788991,35.2257
158,3612.65,3537.66,0.794015,35.2383
159,3635.51,3560.04,0.799039,35.2509
160,3658.37,3582.43,0.804063,35.2633
161,3681.23,3604.81,0.809087,35.2757
162,3704.09,3627.2,0.814111,35.288
163,3726.94,3649.58,0.819135,35.3002
164,3749.8,3671.96,0.824159,35.3123
165,3772.66,3694.35,0.829183,35.3244
166,3795.52,3716.73,0.834207,35.3363
167,3818.38,3739.12,0.839231,35.3482
168,3841.24,3761.5,0.844255,35.36
169,3864.09,3783.88,0.849279,35.3717
170,3886.95,3806.27,0.854303,35.3834
171,3909.81,3828.65,0.859327,35.3949
172,3932.67,3851.04,0.864351,35.4064
173,3955.53,3873.42,0.869375,35.4178
174,3978.39,3895.8,0.874399,35.4291
175,4001.25,3918.19,0.879423,35.4403
176,4024.1,3940.57,0.884448,35.4514
177,4046.96,3962.96,0.889472,35.4625
178,4069.82,3985.34,0.894496,35.4734
179,4092.68,4007.72,0.89952,35.4843
180,4115.54,4030.11,0.904544,35.4951
181,4138.4,4052.49,0.909568,35.5059
182,4161.26,4074.88,0.914592,35.5165
183,4184.11,4097.26,0.919616,35.5271
184,4206.97,4119.65,0.92464,35.5376
185,4229.83,4142.03,0.929664,35.548
186,4252.69,4164.41,0.934688,35.5584
187,4275.55,4186.8,0.939712,35.5686
188,4298.41,4209.18,0.944736,35.5788
189,4321.27,4231.57,0.94976,35.589
190,4344.12,4253.95,0.954784,35.599
191,4366.98,4276.33,0.959808,35.609
192,4389.84,4298.72,0.964832,35.619
193,4412.7,4321.1,0.969856,35.6288
194,4435.56,4343.49,0.97488,35.6387
195,4458.42,4365.87,0.979904,35.6484
196,4481.28,4388.25,0.984928,35.6581
197,4504.13,4410.64,0.989952,35.6677
198,4526.99,4433.02,0.994976,35.6773
199,4549.85,4455.41,1.0,35.6868

File: isotherm_TIP4P_MOF-303_343_N745_ref.csv
,pressure_Pa,fugacity_Pa,p/p0,uptake
0,1.0,0.964495,2.23106e-05,3.35853
1,226.23,218.198,0.00504732,4.23398
2,451.461,435.431,0.0100723,4.46865
3,676.691,652.665,0.0150974,4.70225
4,901.921,869.898,0.0201224,4.93913
5,1127.15,1087.13,0.0251474,5.1756
6,1352.38,1304.36,0.0301724,5.41062
7,1577.61,1521.6,0.0351974,5.639
8,1802.84,1738.83,0.0402224,5.8549
9,2028.07,1956.06,0.0452474,6.05858
10,2253.3,2173.3,0.0502724,6.25484
11,2478.53,2390.53,0.0552975,6.44957
12,2703.76,2607.77,0.0603225,6.64941
13,2928.99,2825,0.0653475,6.86197
14,3154.22,3042.23,0.0703725,7.09284
15,3379.45,3259.47,0.0753975,7.34168
16,3604.68,3476.7,0.0804225,7.60468
17,3829.91,3693.93,0.0854475,7.88292
18,4055.14,3911.17,0.0904726,8.18474
19,4280.37,4128.4,0.0954976,8.51654
20,4505.61,4345.63,0.100523,8.87288
21,4730.84,4562.87,0.105548,9.2414
22,4956.07,4780.1,0.110573,9.61814
23,5181.3,4997.33,0.115598,10.0134
24,5406.53,5214.57,0.120623,10.4479
25,5631.76,5431.8,0.125648,10.9571
26,5856.99,5649.03,0.130673,11.6035
27,6082.22,5866.27,0.135698,12.4477
28,6307.45,6083.5,0.140723,13.4342
29,6532.68,6300.73,0.145748,14.4276
30,6757.91,6517.97,0.150773,15.44
31,6983.14,6735.2,0.155798,16.5852
32,7208.37,6952.43,0.160823,17.8318
33,7433.6,7169.67,0.165848,19.0846
34,7658.83,7386.9,0.170873,20.3175
35,7884.06,7604.13,0.175898,21.4043
36,8109.29,7821.37,0.180923,22.262
37,8334.52,8038.6,0.185948,22.9446
38,8559.75,8255.83,0.190973,23.5314
39,8784.98,8473.07,0.195998,24.0807
40,9010.21,8690.3,0.201023,24.6242
41,9235.44,8907.53,0.206048,25.1602
42,9460.67,9124.77,0.211073,25.6616
43,9685.9,9342,0.216098,26.1041
44,9911.13,9559.23,0.221123,26.4834
45,10136.4,9776.47,0.226148,26.81
46,10361.6,9993.7,0.231173,27.0972
47,10586.8,10210.9,0.236198,27.3556
48,10812.1,10428.2,0.241223,27.5922
49,11037.3,10645.4,0.246248,27.8111
50,11262.5,10862.6,0.251273,28.0152
51,11487.7,11079.9,0.256298,28.2061
52,11713,11297.1,0.261323,28.3853
53,11938.2,11514.3,0.266348,28.5539
54,12163.4,11731.6,0.271373,28.7127
55,12388.7,11948.8,0.276398,28.8624
56,12613.9,12166,0.281423,29.0035
57,12839.1,12383.3,0.286448,29.1366
58,13064.4,12600.5,0.291473,29.262
59,13289.6,12817.7,0.296498,29.3803
60,13514.8,13035,0.301523,29.4921
61,13740,13252.2,0.306548,29.5977
62,13965.3,13469.4,0.311573,29.6977
63,14190.5,13686.7,0.316598,29.7926
64,14415.7,13903.9,0.321623,29.8827
65,14641,14121.1,0.326648,29.9684
66,14866.2,14338.4,0.331673,30.0501
67,15091.4,14555.6,0.336698,30.1282
68,15316.7,14772.8,0.341723,30.2029
69,15541.9,14990.1,0.346748,30.2746
70,15767.1,15207.3,0.351773,30.3435
71,15992.3,15424.5,0.356798,30.41
72,16217.6,15641.8,0.361823,30.4743
73,16442.8,15859,0.366848,30.5367
74,16668,16076.2,0.371873,30.5973
75,16893.3,16293.5,0.376898,30.6564
76,17118.5,16510.7,0.381923,30.7141
77,17343.7,16727.9,0.386948,30.7707
78,17569,16945.2,0.391973,30.8261
79,17794.2,17162.4,0.396998,30.8806
80,18019.4,17379.6,0.402023,30.9343
81,18244.7,17596.9,0.407048,30.9871
82,18469.9,17814.1,0.412073,31.0391
83,18695.1,18031.3,0.417098,31.0904
84,18920.3,18248.6,0.422123,31.141
85,19145.6,18465.8,0.427148,31.1909
86,19370.8,18683,0.432173,31.2401
87,19596,18900.3,0.437198,31.2886
88,19821.3,19117.5,0.442223,31.3364
89,20046.5,19334.7,0.447249,31.3835
90,20271.7,19552,0.452274,31.4298
91,20497,19769.2,0.457299,31.4754
92,20722.2,19986.4,0.462324,31.5202
93,20947.4,20203.7,0.467349,31.5643
94,21172.6,20420.9,0.472374,31.6076
95,21397.9,20638.1,0.477399,31.6501
96,21623.1,20855.4,0.482424,31.6918
97,21848.3,21072.6,0.487449,31.7328
98,22073.6,21289.8,0.492474,31.7731
99,22298.8,21507.1,0.497499,31.8126
100,22524,21724.3,0.502524,31.8514
101,22749.3,21941.5,0.507549,31.8896
102,22974.5,22158.8,0.512574,31.9271
103,23199.7,22376,0.517599,31.9641
104,23424.9,22593.2,0.522624,32.0005
105,23650.2,22810.5,0.527649,32.0364
106,23875.4,23027.7,0.532674,32.0719
107,24100.6,23244.9,0.537699,32.107
108,24325.9,23462.2,0.542724,32.1418
109,24551.1,23679.4,0.547749,32.1763
110,24776.3,23896.6,0.552774,32.2107
111,25001.6,24113.9,0.557799,32.2449
112,25226.8,24331.1,0.562824,32.279
113,25452,24548.3,0.567849,32.3131
114,25677.2,24765.6,0.572874,32.3472
115,25902.5,24982.8,0.577899,32.3814
116,26127.7,25200,0.582924,32.4158
117,26352.9,25417.3,0.587949,32.4503
118,26578.2,25634.5,0.592974,32.4849
119,26803.4,25851.7,0.597999,32.5198
120,27028.6,26069,0.603024,32.555
121,27253.9,26286.2,0.608049,32.5903
122,27479.1,26503.4,0.613074,32.6259
123,27704.3,26720.7,0.618099,32.6617
124,27929.6,26937.9,0.623124,32.6976
125,28154.8,27155.1,0.628149,32.7338
126,28380,27372.4,0.633174,32.77
127,28605.2,27589.6,0.638199,32.8062
128,28830.5,27806.8,0.643224,32.8425
129,29055.7,28024.1,0.648249,32.8786
130,29280.9,28241.3,0.653274,32.9147
131,29506.2,28458.5,0.658299,32.9505
132,29731.4,28675.8,0.663324,32.9861
133,29956.6,28893,0.668349,33.0213
134,30181.9,29110.2,0.673374,33.0561
135,30407.1,29327.5,0.678399,33.0904
136,30632.3,29544.7,0.683424,33.1243
137,30857.5,29761.9,0.688449,33.1575
138,31082.8,29979.2,0.693474,33.1901
139,31308,30196.4,0.698499,33.2221
140,31533.2,30413.6,0.703524,33.2533
141,31758.5,30630.9,0.708549,33.2839
142,31983.7,30848.1,0.713574,33.3137
143,32208.9,31065.3,0.718599,33.3428
144,32434.2,31282.6,0.723624,33.3711
145,32659.4,31499.8,0.728649,33.3987
146,32884.6,31717,0.733674,33.4255
147,33109.8,31934.3,0.738699,33.4516
148,33335.1,32151.5,0.743724,33.4769
149,33560.3,32368.7,0.748749,33.5016
150,33785.5,32586,0.753774,33.5256
151,34010.8,32803.2,0.758799,33.5489
152,34236,33020.4,0.763824,33.5716
153,34461.2,33237.7,0.768849,33.5936
154,34686.5,33454.9,0.773874,33.615
155,34911.7,33672.1,0.778899,33.6359
156,35136.9,33889.4,0.783924,33.6563
157,35362.1,34106.6,0.788949,33.6761
158,35587.4,34323.8,0.793974,33.6954
159,35812.6,34541.1,0.798999,33.7142
160,36037.8,34758.3,0.804024,33.7326
161,36263.1,34975.5,0.809049,33.7505
162,36488.3,35192.8,0.814074,33.7681
163,36713.5,35410,0.8191,33.7852
164,36938.8,35627.2,0.824125,33.802
165,37164,35844.5,0.82915,33.8185
166,37389.2,36061.7,0.834175,33.8346
167,37614.5,36278.9,0.8392,33.8504
168,37839.7,36496.2,0.844225,33.8659
169,38064.9,36713.4,0.84925,33.8811
170,38290.1,36930.6,0.854275,33.8961
171,38515.4,37147.9,0.8593,33.9108
172,38740.6,37365.1,0.864325,33.9252
173,38965.8,37582.3,0.86935,33.9395
174,39191.1,37799.6,0.874375,33.9535
175,39416.3,38016.8,0.8794,33.9673
176,39641.5,38234,0.884425,33.981
177,39866.8,38451.3,0.88945,33.9944
178,40092,38668.5,0.894475,34.0077
179,40317.2,38885.7,0.8995,34.0208
180,40542.4,39103,0.904525,34.0338
181,40767.7,39320.2,0.90955,34.0466
182,40992.9,39537.4,0.914575,34.0593
183,41218.1,39754.7,0.9196,34.0719
184,41443.4,39971.9,0.924625,34.0843
185,41668.6,40189.1,0.92965,34.0966
186,41893.8,40406.4,0.934675,34.1089
187,42119.1,40623.6,0.9397,34.121
188,42344.3,40840.8,0.944725,34.133
189,42569.5,41058.1,0.94975,34.1449
190,42794.7,41275.3,0.954775,34.1568
191,43020,41492.5,0.9598,34.1686
192,43245.2,41709.8,0.964825,34.1802
193,43470.4,41927,0.96985,34.1919
194,43695.7,42144.2,0.974875,34.2034
195,43920.9,42361.5,0.9799,34.2149
196,44146.1,42578.7,0.984925,34.2263
197,44371.4,42795.9,0.98995,34.2377
198,44596.6,43013.2,0.994975,34.249
199,44821.8,43230.4,1.0,34.2603

File: isotherm_TIP4P_MOF-LA2_298_WLTMMC.csv
,pressure,p/p0,fugacity,uptake,metastable_gas,metastable_liq
0,1.0,0.000219787,0.979242,1.33162,,
1,23.8585,0.00524381,23.3633,3.80609,,
2,46.7171,0.0102678,45.7473,4.03558,,
3,69.5756,0.0152919,68.1314,4.17436,,
4,92.4342,0.0203159,90.5155,4.28903,,
5,115.293,0.0253399,112.9,4.39349,,
6,138.151,0.0303639,135.284,4.49228,,
7,161.01,0.0353879,157.668,4.58742,,
8,183.868,0.040412,180.052,4.68,,
9,206.727,0.045436,202.436,4.77051,,
10,229.585,0.05046,224.82,4.85911,,
11,252.444,0.055484,247.204,4.94581,,
12,275.303,0.060508,269.588,5.03063,,
13,298.161,0.0655321,291.972,5.11373,,
14,321.02,0.0705561,314.356,5.19535,,
15,343.878,0.0755801,336.74,5.27582,,
16,366.737,0.0806041,359.124,5.35543,,
17,389.595,0.0856281,381.508,5.43442,,
18,412.454,0.0906522,403.892,5.5129,,
19,435.312,0.0956762,426.276,5.59087,,
20,458.171,0.1007,448.66,5.66824,,
21,481.03,0.105724,471.044,5.74487,,
22,503.888,0.110748,493.428,5.82063,,
23,526.747,0.115772,515.812,5.89542,,
24,549.605,0.120796,538.197,5.96921,,
25,572.464,0.12582,560.581,6.04202,,
26,595.322,0.130844,582.965,6.11395,,
27,618.181,0.135868,605.349,6.18512,,
28,641.039,0.140892,627.733,6.25568,,
29,663.898,0.145916,650.117,6.32579,,
30,686.756,0.15094,672.501,6.3956,,
31,709.615,0.155964,694.885,6.46525,,
32,732.474,0.160988,717.269,6.53485,,
33,755.332,0.166012,739.653,6.60452,,
34,778.191,0.171037,762.037,6.67433,,
35,801.049,0.176061,784.421,6.74438,,
36,823.908,0.181085,806.805,6.81475,,
37,846.766,0.186109,829.189,6.88552,,
38,869.625,0.191133,851.573,6.95681,,
39,892.483,0.196157,873.957,7.02878,,
40,915.342,0.201181,896.341,7.10165,,
41,938.201,0.206205,918.725,7.1758,,
42,961.059,0.211229,941.109,7.25179,,
43,983.918,0.216253,963.494,7.33061,,
44,1006.78,0.221277,985.878,7.41408,,
45,1029.63,0.226301,1008.26,7.5058,,
46,1052.49,0.231325,1030.65,7.61382,,
47,1075.35,0.236349,1053.03,7.75829,,50.776
48,1098.21,0.241373,1075.41,7.99551,,52.4006
49,1121.07,0.246397,1097.8,8.49172,,53.5373
50,1143.93,0.251421,1120.18,9.69208,,54.2323
51,1166.79,0.256445,1142.57,54.7061,12.5994,
52,1189.64,0.261469,1164.95,55.1038,14.5523,
53,1212.5,0.266493,1187.33,55.4726,,
54,1235.36,0.271517,1209.72,55.8252,,
55,1258.22,0.276541,1232.1,56.161,,
56,1281.08,0.281565,1254.49,56.4758,,
57,1303.94,0.286589,1276.87,56.7662,,
58,1326.8,0.291613,1299.25,57.0316,,
59,1349.65,0.296637,1321.64,57.2731,,
60,1372.51,0.301661,1344.02,57.4937,,
61,1395.37,0.306685,1366.41,57.6968,,
62,1418.23,0.311709,1388.79,57.886,,
63,1441.09,0.316733,1411.17,58.0645,,
64,1463.95,0.321757,1433.56,58.2351,,
65,1486.81,0.326781,1455.94,58.4001,,
66,1509.66,0.331805,1478.33,58.5613,,
67,1532.52,0.336829,1500.71,58.7201,,
68,1555.38,0.341853,1523.09,58.8774,,
69,1578.24,0.346877,1545.48,59.0338,,
70,1601.1,0.351901,1567.86,59.1894,,
71,1623.96,0.356925,1590.25,59.344,,
72,1646.82,0.361949,1612.63,59.497,,
73,1669.67,0.366973,1635.02,59.6477,,
74,1692.53,0.371997,1657.4,59.7954,,
75,1715.39,0.377021,1679.78,59.9392,,
76,1738.25,0.382045,1702.17,60.0783,,
77,1761.11,0.387069,1724.55,60.2122,,
78,1783.97,0.392093,1746.94,60.3405,,
79,1806.83,0.397117,1769.32,60.463,,
80,1829.68,0.402141,1791.7,60.5796,,
81,1852.54,0.407166,1814.09,60.6906,,
82,1875.4,0.41219,1836.47,60.7962,,
83,1898.26,0.417214,1858.86,60.8969,,
84,1921.12,0.422238,1881.24,60.9931,,
85,1943.98,0.427262,1903.62,61.0854,,
86,1966.84,0.432286,1926.01,61.1744,,
87,1989.69,0.43731,1948.39,61.2608,,
88,2012.55,0.442334,1970.78,61.3453,,
89,2035.41,0.447358,1993.16,61.4286,,
90,2058.27,0.452382,2015.54,61.5114,,
91,2081.13,0.457406,2037.93,61.5946,,
92,2103.99,0.46243,2060.31,61.6789,,
93,2126.85,0.467454,2082.7,61.7652,,
94,2149.7,0.472478,2105.08,61.8542,,
95,2172.56,0.477502,2127.46,61.9465,,
96,2195.42,0.482526,2149.85,62.0429,,
97,2218.28,0.48755,2172.23,62.1436,,
98,2241.14,0.492574,2194.62,62.249,,
99,2264,0.497598,2217,62.3591,,
100,2286.85,0.502622,2239.38,62.4734,,
101,2309.71,0.507646,2261.77,62.5913,,
102,2332.57,0.51267,2284.15,62.7119,,
103,2355.43,0.517694,2306.54,62.834,,
104,2378.29,0.522718,2328.92,62.9562,,
105,2401.15,0.527742,2351.3,63.0772,,
106,2424.01,0.532766,2373.69,63.1956,,
107,2446.86,0.53779,2396.07,63.3103,,
108,2469.72,0.542814,2418.46,63.4202,,
109,2492.58,0.547838,2440.84,63.5246,,
110,2515.44,0.552862,2463.23,63.6232,,
111,2538.3,0.557886,2485.61,63.7158,,
112,2561.16,0.56291,2507.99,63.8024,,
113,2584.02,0.567934,2530.38,63.8833,,
114,2606.87,0.572958,2552.76,63.9589,,
115,2629.73,0.577982,2575.15,64.0295,,
116,2652.59,0.583006,2597.53,64.0958,,
117,2675.45,0.58803,2619.91,64.1583,,
118,2698.31,0.593054,2642.3,64.2175,,
119,2721.17,0.598078,2664.68,64.2738,,
120,2744.03,0.603102,2687.07,64.3279,,
121,2766.88,0.608126,2709.45,64.3802,,
122,2789.74,0.61315,2731.83,64.4311,,
123,2812.6,0.618174,2754.22,64.481,,
124,2835.46,0.623198,2776.6,64.5303,,
125,2858.32,0.628222,2798.99,64.5793,,
126,2881.18,0.633246,2821.37,64.6285,,
127,2904.04,0.63827,2843.75,64.6779,,
128,2926.89,0.643294,2866.14,64.7281,,
129,2949.75,0.648319,2888.52,64.7791,,
130,2972.61,0.653343,2910.91,64.8313,,
131,2995.47,0.658367,2933.29,64.8848,,
132,3018.33,0.663391,2955.67,64.94,,
133,3041.19,0.668415,2978.06,64.9968,,
134,3064.05,0.673439,3000.44,65.0555,,
135,3086.9,0.678463,3022.83,65.1161,,
136,3109.76,0.683487,3045.21,65.1787,,
137,3132.62,0.688511,3067.59,65.2432,,
138,3155.48,0.693535,3089.98,65.3098,,
139,3178.34,0.698559,3112.36,65.3781,,
140,3201.2,0.703583,3134.75,65.4482,,
141,3224.06,0.708607,3157.13,65.5197,,
142,3246.91,0.713631,3179.51,65.5925,,
143,3269.77,0.718655,3201.9,65.6662,,
144,3292.63,0.723679,3224.28,65.7406,,
145,3315.49,0.728703,3246.67,65.8152,,
146,3338.35,0.733727,3269.05,65.8897,,
147,3361.21,0.738751,3291.44,65.9637,,
148,3384.07,0.743775,3313.82,66.037,,
149,3406.92,0.748799,3336.2,66.1092,,
150,3429.78,0.753823,3358.59,66.18,,
151,3452.64,0.758847,3380.97,66.2491,,
152,3475.5,0.763871,3403.36,66.3164,,
153,3498.36,0.768895,3425.74,66.3816,,
154,3521.22,0.773919,3448.12,66.4448,,
155,3544.08,0.778943,3470.51,66.5058,,
156,3566.93,0.783967,3492.89,66.5647,,
157,3589.79,0.788991,3515.28,66.6213,,
158,3612.65,0.794015,3537.66,66.6759,,
159,3635.51,0.799039,3560.04,66.7284,,
160,3658.37,0.804063,3582.43,66.779,,
161,3681.23,0.809087,3604.81,66.8278,,
162,3704.09,0.814111,3627.2,66.875,,
163,3726.94,0.819135,3649.58,66.9207,,
164,3749.8,0.824159,3671.96,66.965,,
165,3772.66,0.829183,3694.35,67.0081,,
166,3795.52,0.834207,3716.73,67.0502,,
167,3818.38,0.839231,3739.12,67.0915,,
168,3841.24,0.844255,3761.5,67.132,,
169,3864.09,0.849279,3783.88,67.172,,
170,3886.95,0.854303,3806.27,67.2117,,
171,3909.81,0.859327,3828.65,67.251,,
172,3932.67,0.864351,3851.04,67.2903,,
173,3955.53,0.869375,3873.42,67.3296,,
174,3978.39,0.874399,3895.8,67.369,,
175,4001.25,0.879423,3918.19,67.4088,,
176,4024.1,0.884448,3940.57,67.4489,,
177,4046.96,0.889472,3962.96,67.4895,,
178,4069.82,0.894496,3985.34,67.5306,,
179,4092.68,0.89952,4007.72,67.5724,,
180,4115.54,0.904544,4030.11,67.615,,
181,4138.4,0.909568,4052.49,67.6582,,
182,4161.26,0.914592,4074.88,67.7023,,
183,4184.11,0.919616,4097.26,67.7472,,
184,4206.97,0.92464,4119.65,67.793,,
185,4229.83,0.929664,4142.03,67.8395,,
186,4252.69,0.934688,4164.41,67.8869,,
187,4275.55,0.939712,4186.8,67.935,,
188,4298.41,0.944736,4209.18,67.9838,,
189,4321.27,0.94976,4231.57,68.0332,,
190,4344.12,0.954784,4253.95,68.0831,,
191,4366.98,0.959808,4276.33,68.1334,,
192,4389.84,0.964832,4298.72,68.184,,
193,4412.7,0.969856,4321.1,68.2348,,
194,4435.56,0.97488,4343.49,68.2856,,
195,4458.42,0.979904,4365.87,68.3362,,
196,4481.28,0.984928,4388.25,68.3867,,
197,4504.13,0.989952,4410.64,68.4368,,
198,4526.99,0.994976,4433.02,68.4863,,
199,4549.85,1.0,4455.41,68.5352,,