Folder: supplementary_data/002_Mazur_ACSApplMaterInterfaces_2024/isotherms/reference (part 2)

File: isotherm_TIP4P_MOF-LA2_343_N889_ref.csv
,pressure_Pa,fugacity_Pa,p/p0,uptake
0,1.0,0.964495,2.23106e-05,0.04186
1,226.23,218.198,0.00504732,3.18389
2,451.461,435.431,0.0100723,3.598
3,676.691,652.665,0.0150974,3.79082
4,901.921,869.898,0.0201224,3.93971
5,1127.15,1087.13,0.0251474,4.07435
6,1352.38,1304.36,0.0301724,4.20139
7,1577.61,1521.6,0.0351974,4.32351
8,1802.84,1738.83,0.0402224,4.44198
9,2028.07,1956.06,0.0452474,4.55722
10,2253.3,2173.3,0.0502724,4.6691
11,2478.53,2390.53,0.0552975,4.77729
12,2703.76,2607.77,0.0603225,4.8815
13,2928.99,2825,0.0653475,4.98161
14,3154.22,3042.23,0.0703725,5.07767
15,3379.45,3259.47,0.0753975,5.16986
16,3604.68,3476.7,0.0804225,5.25845
17,3829.91,3693.93,0.0854475,5.34375
18,4055.14,3911.17,0.0904726,5.42611
19,4280.37,4128.4,0.0954976,5.50585
20,4505.61,4345.63,0.100523,5.5833
21,4730.84,4562.87,0.105548,5.6588
22,4956.07,4780.1,0.110573,5.73265
23,5181.3,4997.33,0.115598,5.80517
24,5406.53,5214.57,0.120623,5.87665
25,5631.76,5431.8,0.125648,5.94737
26,5856.99,5649.03,0.130673,6.01756
27,6082.22,5866.27,0.135698,6.08744
28,6307.45,6083.5,0.140723,6.15717
29,6532.68,6300.73,0.145748,6.22687
30,6757.91,6517.97,0.150773,6.29661
31,6983.14,6735.2,0.155798,6.36643
32,7208.37,6952.43,0.160823,6.43633
33,7433.6,7169.67,0.165848,6.50631
34,7658.83,7386.9,0.170873,6.57633
35,7884.06,7604.13,0.175898,6.64641
36,8109.29,7821.37,0.180923,6.71653
37,8334.52,8038.6,0.185948,6.78676
38,8559.75,8255.83,0.190973,6.85717
39,8784.98,8473.07,0.195998,6.92793
40,9010.21,8690.3,0.201023,6.99926
41,9235.44,8907.53,0.206048,7.07147
42,9460.67,9124.77,0.211073,7.14498
43,9685.9,9342,0.216098,7.2203
44,9911.13,9559.23,0.221123,7.2981
45,10136.4,9776.47,0.226148,7.37913
46,10361.6,9993.7,0.231173,7.4643
47,10586.8,10210.9,0.236198,7.5546
48,10812.1,10428.2,0.241223,7.65105
49,11037.3,10645.4,0.246248,7.75466
50,11262.5,10862.6,0.251273,7.8663
51,11487.7,11079.9,0.256298,7.98663
52,11713,11297.1,0.261323,8.11592
53,11938.2,11514.3,0.266348,8.25413
54,12163.4,11731.6,0.271373,8.40091
55,12388.7,11948.8,0.276398,8.55594
56,12613.9,12166,0.281423,8.71946
57,12839.1,12383.3,0.286448,8.89346
58,13064.4,12600.5,0.291473,9.08374
59,13289.6,12817.7,0.296498,9.30454
60,13514.8,13035,0.301523,9.58883
61,13740,13252.2,0.306548,10.0122
62,13965.3,13469.4,0.311573,10.7435
63,14190.5,13686.7,0.316598,12.1186
64,14415.7,13903.9,0.321623,14.6202
65,14641,14121.1,0.326648,18.9072
66,14866.2,14338.4,0.331673,27.4885
67,15091.4,14555.6,0.336698,37.9551
68,15316.7,14772.8,0.341723,43.5981
69,15541.9,14990.1,0.346748,46.2861
70,15767.1,15207.3,0.351773,47.7057
71,15992.3,15424.5,0.356798,48.612
72,16217.6,15641.8,0.361823,49.2849
73,16442.8,15859,0.366848,49.8357
74,16668,16076.2,0.371873,50.3141
75,16893.3,16293.5,0.376898,50.7428
76,17118.5,16510.7,0.381923,51.1322
77,17343.7,16727.9,0.386948,51.4873
78,17569,16945.2,0.391973,51.8113
79,17794.2,17162.4,0.396998,52.1072
80,18019.4,17379.6,0.402023,52.378
81,18244.7,17596.9,0.407048,52.627
82,18469.9,17814.1,0.412073,52.8574
83,18695.1,18031.3,0.417098,53.0724
84,18920.3,18248.6,0.422123,53.2748
85,19145.6,18465.8,0.427148,53.4669
86,19370.8,18683,0.432173,53.651
87,19596,18900.3,0.437198,53.8286
88,19821.3,19117.5,0.442223,54.0014
89,20046.5,19334.7,0.447249,54.1704
90,20271.7,19552,0.452274,54.3365
91,20497,19769.2,0.457299,54.5002
92,20722.2,19986.4,0.462324,54.662
93,20947.4,20203.7,0.467349,54.8219
94,21172.6,20420.9,0.472374,54.9797
95,21397.9,20638.1,0.477399,55.1351
96,21623.1,20855.4,0.482424,55.2879
97,21848.3,21072.6,0.487449,55.4374
98,22073.6,21289.8,0.492474,55.5833
99,22298.8,21507.1,0.497499,55.725
100,22524,21724.3,0.502524,55.8622
101,22749.3,21941.5,0.507549,55.9947
102,22974.5,22158.8,0.512574,56.1221
103,23199.7,22376,0.517599,56.2446
104,23424.9,22593.2,0.522624,56.3621
105,23650.2,22810.5,0.527649,56.4747
106,23875.4,23027.7,0.532674,56.5827
107,24100.6,23244.9,0.537699,56.6862
108,24325.9,23462.2,0.542724,56.7857
109,24551.1,23679.4,0.547749,56.8813
110,24776.3,23896.6,0.552774,56.9734
111,25001.6,24113.9,0.557799,57.0624
112,25226.8,24331.1,0.562824,57.1486
113,25452,24548.3,0.567849,57.2321
114,25677.2,24765.6,0.572874,57.3135
115,25902.5,24982.8,0.577899,57.3928
116,26127.7,25200,0.582924,57.4704
117,26352.9,25417.3,0.587949,57.5464
118,26578.2,25634.5,0.592974,57.6212
119,26803.4,25851.7,0.597999,57.695
120,27028.6,26069,0.603024,57.7678
121,27253.9,26286.2,0.608049,57.84
122,27479.1,26503.4,0.613074,57.9117
123,27704.3,26720.7,0.618099,57.983
124,27929.6,26937.9,0.623124,58.0541
125,28154.8,27155.1,0.628149,58.1252
126,28380,27372.4,0.633174,58.1963
127,28605.2,27589.6,0.638199,58.2676
128,28830.5,27806.8,0.643224,58.3393
129,29055.7,28024.1,0.648249,58.4113
130,29280.9,28241.3,0.653274,58.4838
131,29506.2,28458.5,0.658299,58.5569
132,29731.4,28675.8,0.663324,58.6305
133,29956.6,28893,0.668349,58.7048
134,30181.9,29110.2,0.673374,58.7797
135,30407.1,29327.5,0.678399,58.8552
136,30632.3,29544.7,0.683424,58.9313
137,30857.5,29761.9,0.688449,59.008
138,31082.8,29979.2,0.693474,59.0853
139,31308,30196.4,0.698499,59.1629
140,31533.2,30413.6,0.703524,59.241
141,31758.5,30630.9,0.708549,59.3193
142,31983.7,30848.1,0.713574,59.3977
143,32208.9,31065.3,0.718599,59.4763
144,32434.2,31282.6,0.723624,59.5548
145,32659.4,31499.8,0.728649,59.6331
146,32884.6,31717,0.733674,59.7112
147,33109.8,31934.3,0.738699,59.7889
148,33335.1,32151.5,0.743724,59.8662
149,33560.3,32368.7,0.748749,59.9429
150,33785.5,32586,0.753774,60.0189
151,34010.8,32803.2,0.758799,60.0942
152,34236,33020.4,0.763824,60.1687
153,34461.2,33237.7,0.768849,60.2424
154,34686.5,33454.9,0.773874,60.3151
155,34911.7,33672.1,0.778899,60.3868
156,35136.9,33889.4,0.783924,60.4576
157,35362.1,34106.6,0.788949,60.5274
158,35587.4,34323.8,0.793974,60.596
159,35812.6,34541.1,0.798999,60.6637
160,36037.8,34758.3,0.804024,60.7302
161,36263.1,34975.5,0.809049,60.7956
162,36488.3,35192.8,0.814074,60.86
163,36713.5,35410,0.8191,60.9232
164,36938.8,35627.2,0.824125,60.9854
165,37164,35844.5,0.82915,61.0465
166,37389.2,36061.7,0.834175,61.1065
167,37614.5,36278.9,0.8392,61.1654
168,37839.7,36496.2,0.844225,61.2233
169,38064.9,36713.4,0.84925,61.2802
170,38290.1,36930.6,0.854275,61.336
171,38515.4,37147.9,0.8593,61.3909
172,38740.6,37365.1,0.864325,61.4449
173,38965.8,37582.3,0.86935,61.4979
174,39191.1,37799.6,0.874375,61.55
175,39416.3,38016.8,0.8794,61.6013
176,39641.5,38234,0.884425,61.6518
177,39866.8,38451.3,0.88945,61.7015
178,40092,38668.5,0.894475,61.7504
179,40317.2,38885.7,0.8995,61.7986
180,40542.4,39103,0.904525,61.8462
181,40767.7,39320.2,0.90955,61.8931
182,40992.9,39537.4,0.914575,61.9394
183,41218.1,39754.7,0.9196,61.9852
184,41443.4,39971.9,0.924625,62.0305
185,41668.6,40189.1,0.92965,62.0754
186,41893.8,40406.4,0.934675,62.1198
187,42119.1,40623.6,0.9397,62.1638
188,42344.3,40840.8,0.944725,62.2074
189,42569.5,41058.1,0.94975,62.2508
190,42794.7,41275.3,0.954775,62.2939
191,43020,41492.5,0.9598,62.3367
192,43245.2,41709.8,0.964825,62.3793
193,43470.4,41927,0.96985,62.4217
194,43695.7,42144.2,0.974875,62.4639
195,43920.9,42361.5,0.9799,62.506
196,44146.1,42578.7,0.984925,62.548
197,44371.4,42795.9,0.98995,62.5899
198,44596.6,43013.2,0.994975,62.6317
199,44821.8,43230.4,1.0,62.6734

File: isotherm_TIP4P_NU-1000_298_N1200.csv
,pressure_Pa,fugacity_Pa,p/p0,uptake,metastable_gas,metastable_liq
0,1.0,0.979242,0.000219787,0.000198878,,
1,23.8585,23.3633,0.00524381,0.0047537,,
2,46.7171,45.7473,0.0102678,0.00932555,,
3,69.5756,68.1314,0.0152919,0.0139148,,
4,92.4342,90.5155,0.0203159,0.0185218,,
5,115.293,112.9,0.0253399,0.023147,,
6,138.151,135.284,0.0303639,0.0277907,,
7,161.01,157.668,0.0353879,0.0324533,,
8,183.868,180.052,0.040412,0.0371354,,
9,206.727,202.436,0.045436,0.0418372,,
10,229.585,224.82,0.05046,0.0465592,,
11,252.444,247.204,0.055484,0.051302,,
12,275.303,269.588,0.060508,0.0560659,,
13,298.161,291.972,0.0655321,0.0608515,,
14,321.02,314.356,0.0705561,0.0656592,,
15,343.878,336.74,0.0755801,0.0704895,,
16,366.737,359.124,0.0806041,0.0753431,,
17,389.595,381.508,0.0856281,0.0802204,,
18,412.454,403.892,0.0906522,0.0851219,,
19,435.312,426.276,0.0956762,0.0900483,,
20,458.171,448.66,0.1007,0.0950002,,
21,481.03,471.044,0.105724,0.0999782,,
22,503.888,493.428,0.110748,0.104983,,
23,526.747,515.812,0.115772,0.110015,,
24,549.605,538.197,0.120796,0.115075,,
25,572.464,560.581,0.12582,0.120164,,
26,595.322,582.965,0.130844,0.125282,,
27,618.181,605.349,0.135868,0.13043,,
28,641.039,627.733,0.140892,0.135609,,
29,663.898,650.117,0.145916,0.14082,,
30,686.756,672.501,0.15094,0.146064,,
31,709.615,694.885,0.155964,0.151341,,
32,732.474,717.269,0.160988,0.156652,,
33,755.332,739.653,0.166012,0.161998,,
34,778.191,762.037,0.171037,0.167381,,
35,801.049,784.421,0.176061,0.1728,,
36,823.908,806.805,0.181085,0.178257,,
37,846.766,829.189,0.186109,0.183754,,
38,869.625,851.573,0.191133,0.189291,,
39,892.483,873.957,0.196157,0.194869,,
40,915.342,896.341,0.201181,0.200489,,
41,938.201,918.725,0.206205,0.206153,,
42,961.059,941.109,0.211229,0.211862,,
43,983.918,963.494,0.216253,0.217617,,
44,1006.78,985.878,0.221277,0.22342,,
45,1029.63,1008.26,0.226301,0.229272,,
46,1052.49,1030.65,0.231325,0.235174,,
47,1075.35,1053.03,0.236349,0.241128,,
48,1098.21,1075.41,0.241373,0.247136,,
49,1121.07,1097.8,0.246397,0.253199,,
50,1143.93,1120.18,0.251421,0.259318,,
51,1166.79,1142.57,0.256445,0.265497,,
52,1189.64,1164.95,0.261469,0.271735,,
53,1212.5,1187.33,0.266493,0.278037,,
54,1235.36,1209.72,0.271517,0.284403,,
55,1258.22,1232.1,0.276541,0.290835,,
56,1281.08,1254.49,0.281565,0.297337,,
57,1303.94,1276.87,0.286589,0.30391,,
58,1326.8,1299.25,0.291613,0.310556,,
59,1349.65,1321.64,0.296637,0.317279,,
60,1372.51,1344.02,0.301661,0.32408,,
61,1395.37,1366.41,0.306685,0.330963,,
62,1418.23,1388.79,0.311709,0.33793,,
63,1441.09,1411.17,0.316733,0.344985,,
64,1463.95,1433.56,0.321757,0.352131,,
65,1486.81,1455.94,0.326781,0.35937,,
66,1509.66,1478.33,0.331805,0.366707,,
67,1532.52,1500.71,0.336829,0.374145,,
68,1555.38,1523.09,0.341853,0.381688,,
69,1578.24,1545.48,0.346877,0.38934,,
70,1601.1,1567.86,0.351901,0.397105,,
71,1623.96,1590.25,0.356925,0.404987,,
72,1646.82,1612.63,0.361949,0.412991,,
73,1669.67,1635.02,0.366973,0.421122,,
74,1692.53,1657.4,0.371997,0.429385,,
75,1715.39,1679.78,0.377021,0.437785,,
76,1738.25,1702.17,0.382045,0.446328,,
77,1761.11,1724.55,0.387069,0.455019,,
78,1783.97,1746.94,0.392093,0.463864,,
79,1806.83,1769.32,0.397117,0.47287,,
80,1829.68,1791.7,0.402141,0.482043,,
81,1852.54,1814.09,0.407166,0.491391,,
82,1875.4,1836.47,0.41219,0.50092,,
83,1898.26,1858.86,0.417214,0.510639,,
84,1921.12,1881.24,0.422238,0.520554,,
85,1943.98,1903.62,0.427262,0.530676,,
86,1966.84,1926.01,0.432286,0.541011,,
87,1989.69,1948.39,0.43731,0.55157,,
88,2012.55,1970.78,0.442334,0.562362,,
89,2035.41,1993.16,0.447358,0.573398,,
90,2058.27,2015.54,0.452382,0.584686,,
91,2081.13,2037.93,0.457406,0.59624,,
92,2103.99,2060.31,0.46243,0.608069,,
93,2126.85,2082.7,0.467454,0.620186,,
94,2149.7,2105.08,0.472478,0.632604,,
95,2172.56,2127.46,0.477502,0.645336,,
96,2195.42,2149.85,0.482526,0.658394,,379.05
97,2218.28,2172.23,0.48755,0.671795,,381.512
98,2241.14,2194.62,0.492574,0.685552,,383.72
99,2264,2217,0.497598,0.699681,,385.71
100,2286.85,2239.38,0.502622,0.714198,,387.649
101,2309.71,2261.77,0.507646,0.72912,,389.515
102,2332.57,2284.15,0.51267,0.744466,,391.369
103,2355.43,2306.54,0.517694,0.760252,,393.272
104,2378.29,2328.92,0.522718,0.776499,,395.284
105,2401.15,2351.3,0.527742,0.793226,,397.46
106,2424.01,2373.69,0.532766,0.810454,,399.841
107,2446.86,2396.07,0.53779,0.828204,,402.439
108,2469.72,2418.46,0.542814,0.846499,,405.237
109,2492.58,2440.84,0.547838,0.865362,,408.219
110,2515.44,2463.23,0.552862,0.884816,,411.484
111,2538.3,2485.61,0.557886,0.904888,,415.597
112,2561.16,2507.99,0.56291,0.925602,,422.414
113,2584.02,2530.38,0.567934,0.946985,,435.778
114,2606.87,2552.76,0.572958,0.969065,,456.806
115,2629.73,2575.15,0.577982,0.991871,,476.121
116,2652.59,2597.53,0.583006,1.01543,,486.684
117,2675.45,2619.91,0.58803,1.03978,,491.225
118,2698.31,2642.3,0.593054,1.06494,,493.268
119,2721.17,2664.68,0.598078,1.09095,,494.415
120,2744.03,2687.07,0.603102,1.11784,,495.235
121,2766.88,2709.45,0.608126,1.14565,,495.922
122,2789.74,2731.83,0.61315,1.1744,,496.547
123,2812.6,2754.22,0.618174,1.20414,,497.134
124,2835.46,2776.6,0.623198,1.23491,,497.696
125,2858.32,2798.99,0.628222,1.26673,,498.239
126,2881.18,2821.37,0.633246,1.29964,,498.765
127,2904.04,2843.75,0.63827,1.33369,,499.277
128,2926.89,2866.14,0.643294,1.36891,,499.777
129,2949.75,2888.52,0.648319,1.40534,,500.265
130,2972.61,2910.91,0.653343,1.44302,,500.744
131,2995.47,2933.29,0.658367,1.48199,,501.213
132,3018.33,2955.67,0.663391,1.52228,,501.674
133,3041.19,2978.06,0.668415,1.56395,,502.127
134,3064.05,3000.44,0.673439,1.60702,,502.572
135,3086.9,3022.83,0.678463,1.65153,,503.01
136,3109.76,3045.21,0.683487,1.69753,,503.441
137,3132.62,3067.59,0.688511,1.74505,,503.865
138,3155.48,3089.98,0.693535,1.79413,,504.283
139,3178.34,3112.36,0.698559,1.84479,,504.695
140,3201.2,3134.75,0.703583,1.89709,,505.1
141,3224.06,3157.13,0.708607,1.95105,,505.5
142,3246.91,3179.51,0.713631,2.0067,,505.894
143,3269.77,3201.9,0.718655,2.06407,,506.282
144,3292.63,3224.28,0.723679,2.12318,,506.665
145,3315.49,3246.67,0.728703,2.18407,,507.042
146,3338.35,3269.05,0.733727,2.24676,,507.415
147,3361.21,3291.44,0.738751,2.31126,,507.782
148,3384.07,3313.82,0.743775,2.37759,,508.145
149,3406.92,3336.2,0.748799,2.44577,,508.504
150,3429.78,3358.59,0.753823,2.5158,,508.858
151,3452.64,3380.97,0.758847,2.58769,,509.209
152,3475.5,3403.36,0.763871,2.66144,,509.555
153,3498.36,3425.74,0.768895,2.73705,,509.899
154,3521.22,3448.12,0.773919,2.81452,,510.239
155,3544.08,3470.51,0.778943,2.89384,,510.576
156,3566.93,3492.89,0.783967,2.97499,,510.911
157,3589.79,3515.28,0.788991,511.244,3.05795,
158,3612.65,3537.66,0.794015,511.575,3.1427,
159,3635.51,3560.04,0.799039,511.903,3.22922,
160,3658.37,3582.43,0.804063,512.231,3.31747,
161,3681.23,3604.81,0.809087,512.557,3.40741,
162,3704.09,3627.2,0.814111,512.882,3.49902,
163,3726.94,3649.58,0.819135,513.205,3.59223,
164,3749.8,3671.96,0.824159,513.529,3.68702,
165,3772.66,3694.35,0.829183,513.851,3.78332,
166,3795.52,3716.73,0.834207,514.172,3.88108,
167,3818.38,3739.12,0.839231,514.493,3.98024,
168,3841.24,3761.5,0.844255,514.813,4.08076,
169,3864.09,3783.88,0.849279,515.133,4.18255,
170,3886.95,3806.27,0.854303,515.451,4.28557,
171,3909.81,3828.65,0.859327,515.769,4.38974,
172,3932.67,3851.04,0.864351,516.085,4.495,
173,3955.53,3873.42,0.869375,516.4,4.60129,
174,3978.39,3895.8,0.874399,516.714,4.70853,
175,4001.25,3918.19,0.879423,517.025,4.81667,
176,4024.1,3940.57,0.884448,517.335,4.92563,
177,4046.96,3962.96,0.889472,517.643,5.03535,
178,4069.82,3985.34,0.894496,517.948,5.14577,
179,4092.68,4007.72,0.89952,518.251,5.25683,
180,4115.54,4030.11,0.904544,518.551,5.36848,
181,4138.4,4052.49,0.909568,518.847,5.48065,
182,4161.26,4074.88,0.914592,519.141,5.5933,
183,4184.11,4097.26,0.919616,519.431,5.70639,
184,4206.97,4119.65,0.92464,519.717,5.81986,
185,4229.83,4142.03,0.929664,519.999,5.93368,
186,4252.69,4164.41,0.934688,520.278,6.04782,
187,4275.55,4186.8,0.939712,520.553,6.16224,
188,4298.41,4209.18,0.944736,520.823,6.27694,
189,4321.27,4231.57,0.94976,521.09,6.39189,
190,4344.12,4253.95,0.954784,521.352,6.50707,
191,4366.98,4276.33,0.959808,521.61,6.62249,
192,4389.84,4298.72,0.964832,521.864,6.73815,
193,4412.7,4321.1,0.969856,522.114,6.85405,
194,4435.56,4343.49,0.97488,522.36,6.9702,
195,4458.42,4365.87,0.979904,522.603,7.08664,
196,4481.28,4388.25,0.984928,522.841,7.20339,
197,4504.13,4410.64,0.989952,523.076,7.32047,
198,4526.99,4433.02,0.994976,523.307,7.43795,
199,4549.85,4455.41,1.0,523.534,7.55586,

File: isotherm_TIP4P_NU-1000_298_WLTMMC.csv
,pressure,p/p0,fugacity,uptake,metastable_gas,metastable_liq
0,1.0,0.000219787,0.979242,0.000270998,,
1,23.8585,0.00524381,23.3633,0.00647083,,
2,46.7171,0.0102678,45.7473,0.012681,,
3,69.5756,0.0152919,68.1314,0.0189019,,
4,92.4342,0.0203159,90.5155,0.0251341,,
5,115.293,0.0253399,112.9,0.0313781,,
6,138.151,0.0303639,135.284,0.0376345,,
7,161.01,0.0353879,157.668,0.0439038,,
8,183.868,0.040412,180.052,0.0501866,,
9,206.727,0.045436,202.436,0.0564835,,
10,229.585,0.05046,224.82,0.0627951,,
11,252.444,0.055484,247.204,0.069122,,
12,275.303,0.060508,269.588,0.0754651,,
13,298.161,0.0655321,291.972,0.0818248,,
14,321.02,0.0705561,314.356,0.0882021,,
15,343.878,0.0755801,336.74,0.0945976,,
16,366.737,0.0806041,359.124,0.101012,,
17,389.595,0.0856281,381.508,0.107447,,
18,412.454,0.0906522,403.892,0.113902,,
19,435.312,0.0956762,426.276,0.120378,,
20,458.171,0.1007,448.66,0.126877,,
21,481.03,0.105724,471.044,0.1334,,
22,503.888,0.110748,493.428,0.139947,,
23,526.747,0.115772,515.812,0.14652,,
24,549.605,0.120796,538.197,0.153119,,
25,572.464,0.12582,560.581,0.159745,,
26,595.322,0.130844,582.965,0.166401,,
27,618.181,0.135868,605.349,0.173086,,
28,641.039,0.140892,627.733,0.179803,,
29,663.898,0.145916,650.117,0.186552,,
30,686.756,0.15094,672.501,0.193335,,
31,709.615,0.155964,694.885,0.200153,,
32,732.474,0.160988,717.269,0.207008,,
33,755.332,0.166012,739.653,0.213902,,
34,778.191,0.171037,762.037,0.220834,,
35,801.049,0.176061,784.421,0.227809,,
36,823.908,0.181085,806.805,0.234826,,
37,846.766,0.186109,829.189,0.241888,,
38,869.625,0.191133,851.573,0.248997,,
39,892.483,0.196157,873.957,0.256154,,
40,915.342,0.201181,896.341,0.263362,,
41,938.201,0.206205,918.725,0.270623,,
42,961.059,0.211229,941.109,0.277937,,
43,983.918,0.216253,963.494,0.285309,,
44,1006.78,0.221277,985.878,0.29274,,
45,1029.63,0.226301,1008.26,0.300232,,
46,1052.49,0.231325,1030.65,0.307789,,
47,1075.35,0.236349,1053.03,0.315412,,
48,1098.21,0.241373,1075.41,0.323104,,
49,1121.07,0.246397,1097.8,0.330868,,
50,1143.93,0.251421,1120.18,0.338706,,
51,1166.79,0.256445,1142.57,0.346623,,
52,1189.64,0.261469,1164.95,0.354621,,
53,1212.5,0.266493,1187.33,0.362702,,
54,1235.36,0.271517,1209.72,0.370872,,
55,1258.22,0.276541,1232.1,0.379132,,
56,1281.08,0.281565,1254.49,0.387486,,
57,1303.94,0.286589,1276.87,0.39594,,
58,1326.8,0.291613,1299.25,0.404495,,
59,1349.65,0.296637,1321.64,0.413157,,
60,1372.51,0.301661,1344.02,0.421929,,
61,1395.37,0.306685,1366.41,0.430816,,
62,1418.23,0.311709,1388.79,0.439822,,
63,1441.09,0.316733,1411.17,0.448952,,
64,1463.95,0.321757,1433.56,0.458212,,
65,1486.81,0.326781,1455.94,0.467605,,
66,1509.66,0.331805,1478.33,0.477138,,
67,1532.52,0.336829,1500.71,0.486815,,
68,1555.38,0.341853,1523.09,0.496642,,
69,1578.24,0.346877,1545.48,0.506625,,
70,1601.1,0.351901,1567.86,0.516771,,
71,1623.96,0.356925,1590.25,0.527085,,
72,1646.82,0.361949,1612.63,0.537573,,
73,1669.67,0.366973,1635.02,0.548243,,
74,1692.53,0.371997,1657.4,0.559101,,
75,1715.39,0.377021,1679.78,0.570155,,
76,1738.25,0.382045,1702.17,0.581412,,
77,1761.11,0.387069,1724.55,0.592879,,
78,1783.97,0.392093,1746.94,0.604564,,
79,1806.83,0.397117,1769.32,0.616476,,
80,1829.68,0.402141,1791.7,0.628623,,
81,1852.54,0.407166,1814.09,0.641013,,
82,1875.4,0.41219,1836.47,0.653656,,
83,1898.26,0.417214,1858.86,0.66656,,
84,1921.12,0.422238,1881.24,0.679735,,
85,1943.98,0.427262,1903.62,0.693191,,
86,1966.84,0.432286,1926.01,0.706937,,
87,1989.69,0.43731,1948.39,0.720983,,
88,2012.55,0.442334,1970.78,0.735342,,
89,2035.41,0.447358,1993.16,0.750022,,
90,2058.27,0.452382,2015.54,0.765035,,
91,2081.13,0.457406,2037.93,0.780393,,
92,2103.99,0.46243,2060.31,0.796106,,
93,2126.85,0.467454,2082.7,0.812188,,
94,2149.7,0.472478,2105.08,0.828649,,
95,2172.56,0.477502,2127.46,0.845503,,
96,2195.42,0.482526,2149.85,0.862761,,
97,2218.28,0.48755,2172.23,0.880438,,389.44
98,2241.14,0.492574,2194.62,0.898545,,391.672
99,2264,0.497598,2217,0.917096,,393.709
100,2286.85,0.502622,2239.38,0.936105,,395.685
101,2309.71,0.507646,2261.77,0.955585,,397.34
102,2332.57,0.51267,2284.15,0.975551,,399.069
103,2355.43,0.517694,2306.54,0.996016,,400.582
104,2378.29,0.522718,2328.92,1.017,,401.921
105,2401.15,0.527742,2351.3,1.0385,,403.121
106,2424.01,0.532766,2373.69,1.06055,,404.214
107,2446.86,0.53779,2396.07,1.08316,,405.242
108,2469.72,0.542814,2418.46,1.10634,,406.263
109,2492.58,0.547838,2440.84,1.13011,,407.368
110,2515.44,0.552862,2463.23,1.15448,,408.705
111,2538.3,0.557886,2485.61,1.17947,,410.519
112,2561.16,0.56291,2507.99,1.20509,,413.186
113,2584.02,0.567934,2530.38,1.23136,,417.18
114,2606.87,0.572958,2552.76,1.2583,,422.841
115,2629.73,0.577982,2575.15,1.28591,,429.919
116,2652.59,0.583006,2597.53,1.31421,,437.373
117,2675.45,0.58803,2619.91,1.34323,,443.971
118,2698.31,0.593054,2642.3,1.37297,,449.108
119,2721.17,0.598078,2664.68,1.40344,,452.888
120,2744.03,0.603102,2687.07,1.43468,,455.7
121,2766.88,0.608126,2709.45,1.46668,,457.907
122,2789.74,0.61315,2731.83,1.49946,,459.756
123,2812.6,0.618174,2754.22,1.53304,,461.402
124,2835.46,0.623198,2776.6,1.56743,,462.948
125,2858.32,0.628222,2798.99,1.60265,,464.479
126,2881.18,0.633246,2821.37,1.63871,,466.077
127,2904.04,0.63827,2843.75,1.67562,,467.84
128,2926.89,0.643294,2866.14,1.7134,,469.878
129,2949.75,0.648319,2888.52,1.75206,,472.302
130,2972.61,0.653343,2910.91,1.79162,,475.194
131,2995.47,0.658367,2933.29,1.83208,,478.56
132,3018.33,0.663391,2955.67,1.87346,,482.288
133,3041.19,0.668415,2978.06,1.91577,,486.147
134,3064.05,0.673439,3000.44,1.95902,,489.853
135,3086.9,0.678463,3022.83,2.00324,,493.166
136,3109.76,0.683487,3045.21,2.04842,,495.957
137,3132.62,0.688511,3067.59,2.09457,,498.212
138,3155.48,0.693535,3089.98,2.14172,,499.993
139,3178.34,0.698559,3112.36,2.18988,,501.391
140,3201.2,0.703583,3134.75,2.23904,,502.498
141,3224.06,0.708607,3157.13,2.28924,,503.392
142,3246.91,0.713631,3179.51,2.34047,,504.13
143,3269.77,0.718655,3201.9,2.39274,,504.756
144,3292.63,0.723679,3224.28,2.44608,,505.301
145,3315.49,0.728703,3246.67,2.50048,,505.786
146,3338.35,0.733727,3269.05,2.55597,,506.227
147,3361.21,0.738751,3291.44,2.61255,,506.634
148,3384.07,0.743775,3313.82,2.67024,,507.014
149,3406.92,0.748799,3336.2,2.72904,,507.375
150,3429.78,0.753823,3358.59,2.78897,,507.719
151,3452.64,0.758847,3380.97,2.85004,,508.051
152,3475.5,0.763871,3403.36,2.91227,,508.373
153,3498.36,0.768895,3425.74,2.97566,,508.687
154,3521.22,0.773919,3448.12,3.04023,,508.995
155,3544.08,0.778943,3470.51,3.10598,,509.299
156,3566.93,0.783967,3492.89,3.17295,,509.6
157,3589.79,0.788991,3515.28,3.24113,,509.898
158,3612.65,0.794015,3537.66,3.31055,,510.196
159,3635.51,0.799039,3560.04,510.493,3.38121,
160,3658.37,0.804063,3582.43,510.79,3.45314,
161,3681.23,0.809087,3604.81,511.088,3.52634,
162,3704.09,0.814111,3627.2,511.387,3.60083,
163,3726.94,0.819135,3649.58,511.688,3.67663,
164,3749.8,0.824159,3671.96,511.991,3.75375,
165,3772.66,0.829183,3694.35,512.296,3.8322,
166,3795.52,0.834207,3716.73,512.604,3.91201,
167,3818.38,0.839231,3739.12,512.913,3.99318,
168,3841.24,0.844255,3761.5,513.225,4.07574,
169,3864.09,0.849279,3783.88,513.539,4.15969,
170,3886.95,0.854303,3806.27,513.855,4.24505,
171,3909.81,0.859327,3828.65,514.173,4.33184,
172,3932.67,0.864351,3851.04,514.492,4.42006,
173,3955.53,0.869375,3873.42,514.813,4.50974,
174,3978.39,0.874399,3895.8,515.135,4.60087,
175,4001.25,0.879423,3918.19,515.457,4.69347,
176,4024.1,0.884448,3940.57,515.78,4.78756,
177,4046.96,0.889472,3962.96,516.102,4.88313,
178,4069.82,0.894496,3985.34,516.425,4.9802,
179,4092.68,0.89952,4007.72,516.747,5.07877,
180,4115.54,0.904544,4030.11,517.067,5.17884,
181,4138.4,0.909568,4052.49,517.387,5.28043,
182,4161.26,0.914592,4074.88,517.706,5.38352,
183,4184.11,0.919616,4097.26,518.022,5.48813,
184,4206.97,0.92464,4119.65,518.337,5.59423,
185,4229.83,0.929664,4142.03,518.649,5.70185,
186,4252.69,0.934688,4164.41,518.959,5.81096,
187,4275.55,0.939712,4186.8,519.267,5.92156,
188,4298.41,0.944736,4209.18,519.572,6.03364,
189,4321.27,0.94976,4231.57,519.874,6.14719,
190,4344.12,0.954784,4253.95,520.173,6.2622,
191,4366.98,0.959808,4276.33,520.469,6.37867,
192,4389.84,0.964832,4298.72,520.762,6.49657,
193,4412.7,0.969856,4321.1,521.052,6.61589,
194,4435.56,0.97488,4343.49,521.338,6.73662,
195,4458.42,0.979904,4365.87,521.621,6.85874,
196,4481.28,0.984928,4388.25,521.901,6.98225,
197,4504.13,0.989952,4410.64,522.177,7.10713,
198,4526.99,0.994976,4433.02,522.45,7.23337,
199,4549.85,1.0,4455.41,522.719,7.36097,