Folder: supplementary_data/002_Mazur_ACSApplMaterInterfaces_2024/isotherms/reference (part 3)

File: isotherm_TIP4P_NU-1000_343_N1200_ref.csv
,pressure_Pa,fugacity_Pa,p/p0,uptake,metastable_gas,metastable_liq
0,1.0,0.964495,2.23106e-05,0.000884214,,
1,226.23,218.198,0.00504732,0.193494,,
2,451.461,435.431,0.0100723,0.373905,,
3,676.691,652.665,0.0150974,0.543241,,
4,901.921,869.898,0.0201224,0.702491,,
5,1127.15,1087.13,0.0251474,0.85253,,
6,1352.38,1304.36,0.0301724,0.994135,,
7,1577.61,1521.6,0.0351974,1.128,,
8,1802.84,1738.83,0.0402224,1.25473,,
9,2028.07,1956.06,0.0452474,1.3749,,
10,2253.3,2173.3,0.0502724,1.489,,
11,2478.53,2390.53,0.0552975,1.59747,,
12,2703.76,2607.77,0.0603225,1.70073,,
13,2928.99,2825,0.0653475,1.79914,,
14,3154.22,3042.23,0.0703725,1.89303,,
15,3379.45,3259.47,0.0753975,1.98272,,
16,3604.68,3476.7,0.0804225,2.06847,,
17,3829.91,3693.93,0.0854475,2.15055,,
18,4055.14,3911.17,0.0904726,2.22919,,
19,4280.37,4128.4,0.0954976,2.3046,,
20,4505.61,4345.63,0.100523,2.37698,,
21,4730.84,4562.87,0.105548,2.44652,,
22,4956.07,4780.1,0.110573,2.51338,,
23,5181.3,4997.33,0.115598,2.57772,,
24,5406.53,5214.57,0.120623,2.63969,,
25,5631.76,5431.8,0.125648,2.69941,,
26,5856.99,5649.03,0.130673,2.75702,,
27,6082.22,5866.27,0.135698,2.81264,,
28,6307.45,6083.5,0.140723,2.86636,,
29,6532.68,6300.73,0.145748,2.9183,,
30,6757.91,6517.97,0.150773,2.96856,,
31,6983.14,6735.2,0.155798,3.01721,,
32,7208.37,6952.43,0.160823,3.06434,,
33,7433.6,7169.67,0.165848,3.11004,,
34,7658.83,7386.9,0.170873,3.15437,,
35,7884.06,7604.13,0.175898,3.19741,,
36,8109.29,7821.37,0.180923,3.23922,,
37,8334.52,8038.6,0.185948,3.27987,,
38,8559.75,8255.83,0.190973,3.31941,,
39,8784.98,8473.07,0.195998,3.35789,,
40,9010.21,8690.3,0.201023,3.39538,,
41,9235.44,8907.53,0.206048,3.43192,,
42,9460.67,9124.77,0.211073,3.46755,,
43,9685.9,9342,0.216098,3.50233,,
44,9911.13,9559.23,0.221123,3.53629,,
45,10136.4,9776.47,0.226148,3.56947,,
46,10361.6,9993.7,0.231173,3.60191,,
47,10586.8,10210.9,0.236198,3.63366,,
48,10812.1,10428.2,0.241223,3.66473,,
49,11037.3,10645.4,0.246248,3.69517,,
50,11262.5,10862.6,0.251273,3.72501,,
51,11487.7,11079.9,0.256298,3.75427,,
52,11713,11297.1,0.261323,3.78299,,
53,11938.2,11514.3,0.266348,3.81119,,
54,12163.4,11731.6,0.271373,3.83889,,
55,12388.7,11948.8,0.276398,3.86614,,
56,12613.9,12166,0.281423,3.89294,,
57,12839.1,12383.3,0.286448,3.91932,,
58,13064.4,12600.5,0.291473,3.9453,,
59,13289.6,12817.7,0.296498,3.97091,,
60,13514.8,13035,0.301523,3.99617,,
61,13740,13252.2,0.306548,4.02108,,
62,13965.3,13469.4,0.311573,4.04569,,
63,14190.5,13686.7,0.316598,4.06999,,
64,14415.7,13903.9,0.321623,4.09401,,
65,14641,14121.1,0.326648,4.11778,,
66,14866.2,14338.4,0.331673,4.14129,,
67,15091.4,14555.6,0.336698,4.16458,,
68,15316.7,14772.8,0.341723,4.18765,,
69,15541.9,14990.1,0.346748,4.21052,,
70,15767.1,15207.3,0.351773,4.23321,,
71,15992.3,15424.5,0.356798,4.25572,,
72,16217.6,15641.8,0.361823,4.27808,,
73,16442.8,15859,0.366848,4.3003,,
74,16668,16076.2,0.371873,4.32239,,
75,16893.3,16293.5,0.376898,4.34436,,
76,17118.5,16510.7,0.381923,4.36624,,
77,17343.7,16727.9,0.386948,4.38802,,
78,17569,16945.2,0.391973,4.40972,,
79,17794.2,17162.4,0.396998,4.43135,,
80,18019.4,17379.6,0.402023,4.45293,,
81,18244.7,17596.9,0.407048,4.47447,,
82,18469.9,17814.1,0.412073,4.49598,,
83,18695.1,18031.3,0.417098,4.51746,,
84,18920.3,18248.6,0.422123,4.53894,,
85,19145.6,18465.8,0.427148,4.56042,,
86,19370.8,18683,0.432173,4.58192,,
87,19596,18900.3,0.437198,4.60344,,
88,19821.3,19117.5,0.442223,4.62499,,
89,20046.5,19334.7,0.447249,4.64659,,
90,20271.7,19552,0.452274,4.66824,,
91,20497,19769.2,0.457299,4.68996,,
92,20722.2,19986.4,0.462324,4.71176,,
93,20947.4,20203.7,0.467349,4.73365,,
94,21172.6,20420.9,0.472374,4.75563,,
95,21397.9,20638.1,0.477399,4.77772,,
96,21623.1,20855.4,0.482424,4.79994,,
97,21848.3,21072.6,0.487449,4.82228,,
98,22073.6,21289.8,0.492474,4.84476,,
99,22298.8,21507.1,0.497499,4.86739,,
100,22524,21724.3,0.502524,4.89018,,
101,22749.3,21941.5,0.507549,4.91314,,
102,22974.5,22158.8,0.512574,4.93629,,
103,23199.7,22376,0.517599,4.95962,,
104,23424.9,22593.2,0.522624,4.98316,,
105,23650.2,22810.5,0.527649,5.00691,,
106,23875.4,23027.7,0.532674,5.03089,,
107,24100.6,23244.9,0.537699,5.0551,,
108,24325.9,23462.2,0.542724,5.07956,,
109,24551.1,23679.4,0.547749,5.10427,,
110,24776.3,23896.6,0.552774,5.12925,,
111,25001.6,24113.9,0.557799,5.1545,,
112,25226.8,24331.1,0.562824,5.18005,,
113,25452,24548.3,0.567849,5.2059,,
114,25677.2,24765.6,0.572874,5.23205,,
115,25902.5,24982.8,0.577899,5.25854,,
116,26127.7,25200,0.582924,5.28535,,
117,26352.9,25417.3,0.587949,5.31252,,353.418
118,26578.2,25634.5,0.592974,5.34004,,355.562
119,26803.4,25851.7,0.597999,5.36793,,357.166
120,27028.6,26069,0.603024,5.3962,,359.37
121,27253.9,26286.2,0.608049,5.42487,,361.341
122,27479.1,26503.4,0.613074,5.45394,,363.13
123,27704.3,26720.7,0.618099,5.48343,,364.776
124,27929.6,26937.9,0.623124,5.51335,,366.311
125,28154.8,27155.1,0.628149,5.54372,,367.756
126,28380,27372.4,0.633174,5.57454,,369.13
127,28605.2,27589.6,0.638199,5.60584,,370.445
128,28830.5,27806.8,0.643224,5.63761,,371.712
129,29055.7,28024.1,0.648249,5.66988,,372.942
130,29280.9,28241.3,0.653274,5.70266,,374.146
131,29506.2,28458.5,0.658299,5.73597,,375.332
132,29731.4,28675.8,0.663324,5.76981,,376.514
133,29956.6,28893,0.668349,5.8042,,377.703
134,30181.9,29110.2,0.673374,5.83916,,378.917
135,30407.1,29327.5,0.678399,5.8747,,380.175
136,30632.3,29544.7,0.683424,5.91083,,381.505
137,30857.5,29761.9,0.688449,5.94758,,382.94
138,31082.8,29979.2,0.693474,5.98494,,384.526
139,31308,30196.4,0.698499,6.02295,,386.321
140,31533.2,30413.6,0.703524,6.06162,,388.399
141,31758.5,30630.9,0.708549,6.10095,,390.844
142,31983.7,30848.1,0.713574,6.14098,,393.745
143,32208.9,31065.3,0.718599,6.18171,,397.179
144,32434.2,31282.6,0.723624,6.22316,,401.188
145,32659.4,31499.8,0.728649,6.26535,,405.751
146,32884.6,31717,0.733674,6.3083,,410.778
147,33109.8,31934.3,0.738699,6.35203,,416.131
148,33335.1,32151.5,0.743724,6.39655,,421.671
149,33560.3,32368.7,0.748749,6.44188,,427.298
150,33785.5,32586,0.753774,6.48804,,432.968
151,34010.8,32803.2,0.758799,6.53506,,438.652
152,34236,33020.4,0.763824,6.58295,,444.28
153,34461.2,33237.7,0.768849,6.63174,,449.716
154,34686.5,33454.9,0.773874,6.68144,,454.769
155,34911.7,33672.1,0.778899,6.73208,,459.266
156,35136.9,33889.4,0.783924,6.78367,,463.102
157,35362.1,34106.6,0.788949,6.83626,,466.268
158,35587.4,34323.8,0.793974,6.88985,,468.826
159,35812.6,34541.1,0.798999,6.94447,,470.878
160,36037.8,34758.3,0.804024,7.00016,,472.53
161,36263.1,34975.5,0.809049,7.05693,,473.878
162,36488.3,35192.8,0.814074,7.11482,,475.001
163,36713.5,35410,0.8191,7.17385,,475.958
164,36938.8,35627.2,0.824125,7.23405,,476.794
165,37164,35844.5,0.82915,7.29546,,477.54
166,37389.2,36061.7,0.834175,7.3581,,478.221
167,37614.5,36278.9,0.8392,7.42201,,478.852
168,37839.7,36496.2,0.844225,7.48723,,479.445
169,38064.9,36713.4,0.84925,7.55379,,480.008
170,38290.1,36930.6,0.854275,7.62173,,480.549
171,38515.4,37147.9,0.8593,7.69109,,481.07
172,38740.6,37365.1,0.864325,7.76191,,481.576
173,38965.8,37582.3,0.86935,482.07,7.83424,
174,39191.1,37799.6,0.874375,482.552,7.90812,
175,39416.3,38016.8,0.8794,483.026,7.98361,
176,39641.5,38234,0.884425,483.492,8.06075,
177,39866.8,38451.3,0.88945,483.952,8.1396,
178,40092,38668.5,0.894475,484.407,8.22021,
179,40317.2,38885.7,0.8995,484.857,8.30266,
180,40542.4,39103,0.904525,485.303,8.38701,
181,40767.7,39320.2,0.90955,485.745,8.47332,
182,40992.9,39537.4,0.914575,486.185,8.56168,
183,41218.1,39754.7,0.9196,486.622,8.65218,
184,41443.4,39971.9,0.924625,487.057,8.74489,
185,41668.6,40189.1,0.92965,487.491,8.83992,
186,41893.8,40406.4,0.934675,487.922,8.93737,
187,42119.1,40623.6,0.9397,488.351,9.03737,
188,42344.3,40840.8,0.944725,488.779,9.14003,
189,42569.5,41058.1,0.94975,489.204,9.2455,
190,42794.7,41275.3,0.954775,489.627,9.35393,
191,43020,41492.5,0.9598,490.048,9.46549,
192,43245.2,41709.8,0.964825,490.465,9.58037,
193,43470.4,41927,0.96985,490.88,9.69878,
194,43695.7,42144.2,0.974875,491.291,9.82094,
195,43920.9,42361.5,0.9799,491.699,9.94711,
196,44146.1,42578.7,0.984925,492.102,10.0776,
197,44371.4,42795.9,0.98995,492.501,10.2127,
198,44596.6,43013.2,0.994975,492.896,10.3527,
199,44821.8,43230.4,1.0,493.285,10.4982,